{
	"resourceType": "Bundle",
	"type": "transaction",
	"entry": [
		{
			"resource": {
				"resourceType": "ExplanationOfBenefit",
				"meta": {
					"lastUpdated": "2021-06-07",
					"profile": [
						"http://hl7.org/fhir/us/carin-bb/StructureDefinition/C4BB-ExplanationOfBenefit-Professional-NonClinician"
					]
				},
				"identifier": [
					{
						"type": {
							"coding": [
								{
									"system": "http://hl7.org/fhir/us/carin-bb/CodeSystem/C4BBIdentifierType",
									"code": "payerid"
								}
							]
						},
						"system": "https://hl7.org/fhir/sid/payerid",
						"value": "37525500673"
					},
					{
						"type": {
							"coding": [
								{
									"system": "http://hl7.org/fhir/us/carin-bb/CodeSystem/C4BBIdentifierType",
									"code": "uc"
								}
							]
						},
						"system": "https://hl7.org/fhir/sid/claimid",
						"value": "26723516"
					}
				],
				"status": "active",
				"type": {
					"coding": [
						{
							"system": "http://terminology.hl7.org/CodeSystem/claim-type",
							"code": "professional"
						}
					]
				},
				"use": "claim",
				"patient": {
					"reference": "Patient/d16f4424-9703-23bf-8331-3fc4bceb0c21"
				},
				"billablePeriod": {
					"start": "2018-01-09",
					"end": "2018-01-09"
				},
				"created": "2018-01-08T00:00:00-08:00",
				"insurer": {
					"reference": "Organization/b77d3b98-03d8-1f0a-07b7-30b636c6ea9b"
				},
				"provider": {
					"reference": "Organization/e03b46ec-94df-0849-49eb-f5bba0c024c2"
				},
				"payee": {
					"type": {
						"coding": [
							{
								"system": "http://terminology.hl7.org/CodeSystem/payeetype",
								"code": "provider"
							}
						],
						"text": "Claim paid to VENDOR"
					}
				},
				"facility": {
					"reference": "Location/11651884-37d2-eede-e1b9-059afd90811a"
				},
				"outcome": "complete",
				"disposition": "DENIED",
				"careTeam": [
					{
						"sequence": 1,
						"provider": {
							"reference": "Practitioner/d2fc93e1-e1f8-c6d3-6c2c-9301f0e02c7c"
						},
						"responsible": true,
						"role": {
							"coding": [
								{
									"system": "http://hl7.org/fhir/us/carin-bb/CodeSystem/C4BBClaimCareTeamRole",
									"code": "performing"
								}
							]
						}
					}
				],
				"supportingInfo": [
					{
						"sequence": 1,
						"category": {
							"coding": [
								{
									"system": "http://hl7.org/fhir/us/carin-bb/CodeSystem/C4BBSupportingInfoType",
									"code": "clmrecvddate"
								}
							]
						},
						"timingDate": "2018-01-08"
					},
					{
						"sequence": 2,
						"category": {
							"coding": [
								{
									"system": "http://hl7.org/fhir/us/carin-bb/CodeSystem/C4BBSupportingInfoType",
									"code": "billingnetworkcontractingstatus"
								}
							]
						},
						"code": {
							"coding": [
								{
									"system": "http://hl7.org/fhir/us/carin-bb/CodeSystem/C4BBPayerAdjudicationStatus",
									"code": "contracted"
								}
							]
						}
					}
				],
				"diagnosis": [
					{
						"sequence": 1,
						"diagnosisCodeableConcept": {
							"coding": [
								{
									"system": "http://hl7.org/fhir/sid/icd-10-cm",
									"code": "M47.012",
									"display": "ANT SPINAL ART COMPRESSION SYND CERVICAL REGION"
								}
							],
							"text": "ANT SPINAL ART COMPRESSION SYND CERVICAL REGION"
						},
						"type": [
							{
								"coding": [
									{
										"system": "http://terminology.hl7.org/CodeSystem/ex-diagnosistype",
										"code": "principal"
									}
								]
							}
						]
					}
				],
				"procedure": [
					{
						"sequence": 1,
						"date": "2018-01-08T00:00:00-08:00",
						"procedureCodeableConcept": {
							"coding": [
								{
									"system": "http://www.ama-assn.org/go/cpt",
									"code": "L0454",
									"display": "TLSO FLEX PREFAB SACROCOC-T9"
								}
							],
							"text": "TLSO FLEXIBLE SC JUNCT TO T-9 PREFAB CUSTOM FIT"
						}
					}
				],
				"insurance": [
					{
						"focal": true,
						"coverage": {
							"reference": "urn:uuid:a8430b1b-1f26-44ea-8866-a605ebb48f21"
						}
					}
				],
				"item": [
					{
						"sequence": 1,
						"diagnosisSequence": [
							1
						],
						"procedureSequence": [
							1
						],
						"productOrService": {
							"coding": [
								{
									"system": "http://www.ama-assn.org/go/cpt",
									"code": "L0454",
									"display": "TLSO FLEX PREFAB SACROCOC-T9"
								}
							],
							"text": "TLSO FLEXIBLE SC JUNCT TO T-9 PREFAB CUSTOM FIT"
						},
						"modifier": [
							{
								"coding": [
									{
										"system": "http://www.ama-assn.org/go/cpt",
										"code": "NU",
										"display": "NEW EQUIPMENT"
									}
								],
								"text": "NEW EQUIPMENT"
							}
						],
						"servicedPeriod": {
							"start": "2018-01-08",
							"end": "2018-01-08"
						},
						"locationCodeableConcept": {
							"coding": [
								{
									"system": "https://www.cms.gov/Medicare/Coding/place-of-service-codes/Place_of_Service_Code_Set",
									"code": "11"
								}
							]
						},
						"quantity": {
							"value": 1,
							"unit": "Units",
							"system": "http://unitsofmeasure.org",
							"code": "[arb'U]"
						},
						"net": {
							"value": 704.26,
							"currency": "USD"
						},
						"noteNumber": [
							1,
							2
						],
						"adjudication": [
							{
								"category": {
									"coding": [
										{
											"system": "http://terminology.hl7.org/CodeSystem/adjudication",
											"code": "submitted"
										}
									]
								},
								"amount": {
									"value": 704.26,
									"currency": "USD"
								}
							},
							{
								"category": {
									"coding": [
										{
											"system": "http://terminology.hl7.org/CodeSystem/adjudication",
											"code": "benefit"
										}
									]
								},
								"amount": {
									"value": 0,
									"currency": "USD"
								}
							},
							{
								"category": {
									"coding": [
										{
											"system": "http://terminology.hl7.org/CodeSystem/adjudication",
											"code": "copay"
										}
									]
								},
								"amount": {
									"value": 0,
									"currency": "USD"
								}
							},
							{
								"category": {
									"coding": [
										{
											"system": "http://terminology.hl7.org/CodeSystem/adjudication",
											"code": "deductible"
										}
									]
								},
								"amount": {
									"value": 0,
									"currency": "USD"
								}
							},
							{
								"category": {
									"coding": [
										{
											"system": "http://hl7.org/fhir/us/carin-bb/CodeSystem/C4BBAdjudication",
											"code": "coinsurance"
										}
									]
								},
								"amount": {
									"value": 0,
									"currency": "USD"
								}
							},
							{
								"category": {
									"coding": [
										{
											"system": "http://hl7.org/fhir/us/carin-bb/CodeSystem/C4BBAdjudication",
											"code": "memberliability"
										}
									]
								},
								"amount": {
									"value": 0,
									"currency": "USD"
								}
							},
							{
								"category": {
									"coding": [
										{
											"system": "http://hl7.org/fhir/us/carin-bb/CodeSystem/C4BBAdjudication",
											"code": "noncovered"
										}
									]
								},
								"amount": {
									"value": 0,
									"currency": "USD"
								}
							},
							{
								"category": {
									"coding": [
										{
											"system": "http://hl7.org/fhir/us/carin-bb/CodeSystem/C4BBAdjudication",
											"code": "priorpayerpaid"
										}
									]
								},
								"amount": {
									"value": 0,
									"currency": "USD"
								}
							},
							{
								"category": {
									"coding": [
										{
											"system": "http://hl7.org/fhir/us/carin-bb/CodeSystem/C4BBAdjudication",
											"code": "paidtoprovider"
										}
									]
								},
								"amount": {
									"value": 0,
									"currency": "USD"
								}
							},
							{
								"category": {
									"coding": [
										{
											"system": "http://hl7.org/fhir/us/carin-bb/CodeSystem/C4BBPayerAdjudicationStatus",
											"code": "outofnetwork"
										}
									]
								},
								"amount": {
									"value": 0,
									"currency": "USD"
								}
							}
						]
					}
				],
				"total": [
					{
						"category": {
							"coding": [
								{
									"system": "http://terminology.hl7.org/CodeSystem/adjudication",
									"code": "submitted"
								}
							]
						},
						"amount": {
							"value": 704.26,
							"currency": "USD"
						}
					},
					{
						"category": {
							"coding": [
								{
									"system": "http://terminology.hl7.org/CodeSystem/adjudication",
									"code": "benefit"
								}
							]
						},
						"amount": {
							"value": 0,
							"currency": "USD"
						}
					},
					{
						"category": {
							"coding": [
								{
									"system": "http://terminology.hl7.org/CodeSystem/adjudication",
									"code": "copay"
								}
							]
						},
						"amount": {
							"value": 0,
							"currency": "USD"
						}
					},
					{
						"category": {
							"coding": [
								{
									"system": "http://terminology.hl7.org/CodeSystem/adjudication",
									"code": "deductible"
								}
							]
						},
						"amount": {
							"value": 0,
							"currency": "USD"
						}
					},
					{
						"category": {
							"coding": [
								{
									"system": "http://hl7.org/fhir/us/carin-bb/CodeSystem/C4BBAdjudication",
									"code": "coinsurance"
								}
							]
						},
						"amount": {
							"value": 0,
							"currency": "USD"
						}
					},
					{
						"category": {
							"coding": [
								{
									"system": "http://hl7.org/fhir/us/carin-bb/CodeSystem/C4BBAdjudication",
									"code": "memberliability"
								}
							]
						},
						"amount": {
							"value": 0,
							"currency": "USD"
						}
					},
					{
						"category": {
							"coding": [
								{
									"system": "http://hl7.org/fhir/us/carin-bb/CodeSystem/C4BBAdjudication",
									"code": "noncovered"
								}
							]
						},
						"amount": {
							"value": 0,
							"currency": "USD"
						}
					},
					{
						"category": {
							"coding": [
								{
									"system": "http://hl7.org/fhir/us/carin-bb/CodeSystem/C4BBAdjudication",
									"code": "priorpayerpaid"
								}
							]
						},
						"amount": {
							"value": 0,
							"currency": "USD"
						}
					},
					{
						"category": {
							"coding": [
								{
									"system": "http://hl7.org/fhir/us/carin-bb/CodeSystem/C4BBAdjudication",
									"code": "paidtoprovider"
								}
							]
						},
						"amount": {
							"value": 0,
							"currency": "USD"
						}
					}
				],
				"payment": {
					"date": "2021-01-22",
					"amount": {
						"value": 0,
						"currency": "USD"
					}
				},
				"processNote": [
					{
						"number": 1,
						"type": "display",
						"text": "AUD02: DENY, NOT AUTHORIZED, PROVIDER LIABILITY"
					},
					{
						"number": 2,
						"type": "display",
						"text": "BED08: DENY, PROCEDURE NOT COVERED"
					}
				]
			},
			"request": {
				"method": "PUT",
				"url": "ExplanationOfBenefit?identifier=37525500673"
			}
		},
		{
			"resource": {
				"resourceType": "Patient",
				"id": "d16f4424-9703-23bf-8331-3fc4bceb0c21",
				"meta": {
					"lastUpdated": "2021-06-07",
					"profile": [
						"http://hl7.org/fhir/us/core/StructureDefinition/us-core-patient"
					]
				},
				"identifier": [
					{
						"type": {
							"coding": [
								{
									"system": "http://terminology.hl7.org/CodeSystem/v2-0203",
									"code": "MR"
								}
							]
						},
						"system": "https://example.org/front-door",
						"value": "1000116-GA"
					}
				],
				"name": [
					{
						"use": "usual",
						"text": "Gaabcseven Testing",
						"family": "Testing",
						"given": [
							"Gaabcsix"
						]
					}
				],
				"telecom": [
					{
						"system": "phone",
						"value": "662-123-3456",
						"use": "home"
					}
				],
				"gender": "male",
				"birthDate": "1961-01-01",
				"address": [
					{
						"use": "home",
						"type": "postal",
						"line": [
							"TEST ADDRESS AVE, APT 234"
						],
						"city": "ATLANTA",
						"state": "GA",
						"postalCode": "30301"
					}
				]
			},
			"request": {
				"method": "PUT",
				"url": "Patient/d16f4424-9703-23bf-8331-3fc4bceb0c21"
			}
		},
		{
			"fullUrl": "urn:uuid:a8430b1b-1f26-44ea-8866-a605ebb48f21",
			"resource": {
				"resourceType": "Coverage",
				"meta": {
					"lastUpdated": "2021-06-07",
					"profile": [
						"http://hl7.org/fhir/us/carin-bb/StructureDefinition/C4BB-Coverage"
					]
				},
				"identifier": [
					{
						"type": {
							"coding": [
								{
									"system": "http://terminology.hl7.org/CodeSystem/v2-0203",
									"code": "FILL"
								}
							]
						},
						"system": "https://hl7.org/fhir/sid/coverageid",
						"value": "1000116-GA-10159"
					}
				],
				"status": "active",
				"type": {
					"coding": [
						{
							"system": "http://terminology.hl7.org/CodeSystem/v3-ActCode",
							"code": "HMO",
							"display": "health maintenance organization policy"
						}
					],
					"text": "COMMERCIAL HMO-HMO-Amb Accum"
				},
				"subscriberId": "1000116",
				"beneficiary": {
					"reference": "Patient/d16f4424-9703-23bf-8331-3fc4bceb0c21"
				},
				"relationship": {
					"coding": [
						{
							"system": "http://terminology.hl7.org/CodeSystem/subscriber-relationship",
							"code": "self",
							"display": "Self"
						}
					],
					"text": "The Beneficiary is the Subscriber"
				},
				"period": {
					"start": "2017-01-01"
				},
				"payor": [
					{
						"reference": "Organization/b77d3b98-03d8-1f0a-07b7-30b636c6ea9b"
					}
				],
				"class": [
					{
						"type": {
							"coding": [
								{
									"system": "http://terminology.hl7.org/CodeSystem/coverage-class",
									"code": "group",
									"display": "Group"
								}
							],
							"text": "An employee group"
						},
						"value": "10159",
						"name": "10159-100 STATE DEPTS, DFACS, HEALTH-NON-MEDICARE"
					}
				]
			},
			"request": {
				"method": "PUT",
				"url": "Coverage?identifier=1000116-GA-10159"
			}
		},
		{
			"resource": {
				"resourceType": "Organization",
				"id": "e03b46ec-94df-0849-49eb-f5bba0c024c2",
				"meta": {
					"lastUpdated": "2021-06-07",
					"profile": [
						"http://hl7.org/fhir/us/carin-bb/StructureDefinition/C4BB-Organization"
					]
				},
				"identifier": [
					{
						"type": {
							"coding": [
								{
									"system": "http://hl7.org/fhir/us/carin-bb/CodeSystem/C4BBIdentifierType",
									"code": "npi"
								}
							]
						},
						"system": "http://hl7.org/fhir/sid/us-npi"
					},
					{
						"type": {
							"coding": [
								{
									"system": "http://terminology.hl7.org/CodeSystem/v2-0203",
									"code": "TAX"
								}
							]
						},
						"system": "urn:oid:2.16.840.1.113883.4.4",
						"value": "330057155"
					}
				],
				"active": true,
				"type": [
					{
						"coding": [
							{
								"system": "http://terminology.hl7.org/CodeSystem/organization-type",
								"code": "prov"
							}
						]
					}
				],
				"name": "APRIA HEALTHCARE LLC",
				"address": [
					{
						"use": "work",
						"type": "physical",
						"line": [
							"2508 SOLUTIONS CENTER"
						],
						"city": "CHICAGO",
						"state": "IL",
						"postalCode": "60677-2005",
						"country": "USA"
					}
				]
			},
			"request": {
				"method": "PUT",
				"url": "Organization/e03b46ec-94df-0849-49eb-f5bba0c024c2"
			}
		},
		{
			"resource": {
				"resourceType": "Organization",
				"id": "b77d3b98-03d8-1f0a-07b7-30b636c6ea9b",
				"meta": {
					"lastUpdated": "2021-06-07",
					"profile": [
						"http://hl7.org/fhir/us/carin-bb/StructureDefinition/C4BB-Organization"
					]
				},
				"identifier": [
					{
						"use": "usual",
						"type": {
							"coding": [
								{
									"system": "http://terminology.hl7.org/CodeSystem/v2-0203",
									"code": "FILL"
								}
							]
						},
						"system": "https://hl7.org/fhir/sid/organizationid",
						"value": "NATLTAP GA-KFHP-GA"
					}
				],
				"active": true,
				"type": [
					{
						"coding": [
							{
								"system": "http://terminology.hl7.org/CodeSystem/organization-type",
								"code": "pay",
								"display": "Payer"
							}
						]
					}
				],
				"name": "KAISER FOUNDATION HEALTHPLAN, INC",
				"telecom": [
					{
						"system": "phone",
						"value": "1-888-865-5813",
						"use": "work"
					}
				],
				"address": [
					{
						"use": "work",
						"type": "postal",
						"line": [
							"NATIONAL CLAIMS ADMINISTRATION GEORGIA",
							"PO Box 629028"
						],
						"city": "El Dorado Hills",
						"state": "CA",
						"postalCode": "95762-9028"
					}
				]
			},
			"request": {
				"method": "PUT",
				"url": "Organization/b77d3b98-03d8-1f0a-07b7-30b636c6ea9b"
			}
		},
		{
			"resource": {
				"resourceType": "Practitioner",
				"id": "d2fc93e1-e1f8-c6d3-6c2c-9301f0e02c7c",
				"meta": {
					"lastUpdated": "2021-06-07",
					"profile": [
						"http://hl7.org/fhir/us/core/StructureDefinition/us-core-practitioner"
					]
				},
				"identifier": [
					{
						"use": "usual",
						"type": {
							"coding": [
								{
									"system": "http://terminology.hl7.org/CodeSystem/v2-0203",
									"code": "NPI"
								}
							]
						},
						"system": "http://hl7.org/fhir/sid/us-npi",
						"value": "PIN2001487498"
					}
				],
				"name": [
					{
						"use": "usual",
						"text": "APRIA HEALTHCARE LLC",
						"family": "APRIA HEALTHCARE LLC"
					}
				],
				"address": [
					{
						"use": "work",
						"line": [
							"805 MARATHON PARKWAY",
							"SUITE 160"
						],
						"city": "LAWRENCEVILLE",
						"state": "GA",
						"postalCode": "30046"
					}
				]
			},
			"request": {
				"method": "PUT",
				"url": "Practitioner/d2fc93e1-e1f8-c6d3-6c2c-9301f0e02c7c"
			}
		},
		{
			"resource": {
				"resourceType": "Location",
				"id": "11651884-37d2-eede-e1b9-059afd90811a",
				"meta": {
					"lastUpdated": "2021-06-07"
				},
				"identifier": [
					{
						"use": "usual",
						"type": {
							"coding": [
								{
									"system": "http://terminology.hl7.org/CodeSystem/v2-0203",
									"code": "NPI"
								}
							]
						},
						"value": "PIN12120678"
					}
				],
				"status": "active",
				"name": "APRIA HEALTHCARE INC-30013",
				"mode": "kind",
				"type": [
					{
						"coding": [
							{
								"system": "https://www.cms.gov/Medicare/Coding/place-of-service-codes/Place_of_Service_Code_Set",
								"code": "99"
							}
						]
					}
				],
				"address": {
					"use": "work",
					"type": "physical",
					"line": [
						"594 SIGMAN RD STE 100"
					],
					"city": "CONYERS",
					"state": "GA",
					"postalCode": "30013-1365"
				}
			},
			"request": {
				"method": "PUT",
				"url": "Location/11651884-37d2-eede-e1b9-059afd90811a"
			}
		}
	]
}
