<?xml version="1.0" encoding="UTF-8"?>

<Bundle xmlns="http://hl7.org/fhir">
  <id value="ExampleEstablishmentRegistration"/>
  <meta>
    <profile value="http://hl7.org/fhir/us/spl/StructureDefinition/EstablishmentRegistrationBundle"/>
  </meta>
  <type value="message"/>
  <timestamp value="2025-08-11T01:01:01.111+06:00"/>
  <entry>
    <fullUrl value="http://example.org/MessageHeader/SampleEstablishmentRegistrationMessage"/>
    <resource>
      <MessageHeader>
        <id value="SampleEstablishmentRegistrationMessage"/>
        <meta>
          <profile value="http://hl7.org/fhir/us/spl/StructureDefinition/EstablishmentRegistrationMessage"/>
        </meta>
        <text>
          <status value="generated"/><div xmlns="http://www.w3.org/1999/xhtml"><a name="MessageHeader_SampleEstablishmentRegistrationMessage"> </a><p class="res-header-id"><b>Generated Narrative: MessageHeader SampleEstablishmentRegistrationMessage</b></p><a name="SampleEstablishmentRegistrationMessage"> </a><a name="hcSampleEstablishmentRegistrationMessage"> </a><a name="SampleEstablishmentRegistrationMessage-en-US"> </a><div style="display: inline-block; background-color: #d9e0e7; padding: 6px; margin: 4px; border: 1px solid #8da1b4; border-radius: 5px; line-height: 60%"><p style="margin-bottom: 0px"/><p style="margin-bottom: 0px">Profile: <a href="StructureDefinition-EstablishmentRegistrationMessage.html">EstablishmentRegistrationMessage</a></p></div><p><b>event</b>: <a href="https://loinc.org/51725-0">LOINC 51725-0</a>: Establishment registration</p><h3>Sources</h3><table class="grid"><tr><td style="display: none">-</td><td><b>Endpoint[x]</b></td></tr><tr><td style="display: none">*</td><td><a href="http://source.com/endpoint/">http://source.com/endpoint/</a></td></tr></table><p><b>focus</b>: </p><ul><li><a href="Organization-ExampleEstablishmentRegistrant.html">Organization REGISTRANT SERVICES INC</a></li><li><a href="Organization-ExampleEstablishment.html">Organization EXAMPLE ESTABLISHMENT INC.</a></li></ul></div>
        </text>
        <eventCoding>
          <system value="http://loinc.org"/>
          <code value="51725-0"/>
          <display value="Establishment registration"/>
        </eventCoding>
        <source>
          <endpointUrl value="http://source.com/endpoint/"/>
        </source>
        <focus>
          <reference value="Organization/ExampleEstablishmentRegistrant"/>
        </focus>
        <focus>
          <reference value="Organization/ExampleEstablishment"/>
        </focus>
      </MessageHeader>
    </resource>
  </entry>
  <entry>
    <fullUrl value="http://example.org/Organization/ExampleEstablishmentRegistrant"/>
    <resource>
      <Organization>
        <id value="ExampleEstablishmentRegistrant"/>
        <meta>
          <profile value="http://hl7.org/fhir/us/spl/StructureDefinition/EstablishmentRegistrantOrganization"/>
        </meta>
        <text>
          <status value="generated"/><div xmlns="http://www.w3.org/1999/xhtml"><a name="Organization_ExampleEstablishmentRegistrant"> </a><p class="res-header-id"><b>Generated Narrative: Organization ExampleEstablishmentRegistrant</b></p><a name="ExampleEstablishmentRegistrant"> </a><a name="hcExampleEstablishmentRegistrant"> </a><a name="ExampleEstablishmentRegistrant-en-US"> </a><div style="display: inline-block; background-color: #d9e0e7; padding: 6px; margin: 4px; border: 1px solid #8da1b4; border-radius: 5px; line-height: 60%"><p style="margin-bottom: 0px"/><p style="margin-bottom: 0px">Profile: <a href="StructureDefinition-EstablishmentRegistrantOrganization.html">EstablishmentRegistrantOrganization</a></p></div><p><b>identifier</b>: <a href="http://terminology.hl7.org/6.2.0/NamingSystem-DUNSNumber.html" title="&quot;The Dun &amp; Bradstreet D-U-N-S® Number (short for Data Universal Numbering System) is a nine-digit unique identifier for businesses. Hundreds of millions of D-U-N-S Numbers exist for companies across the globe.

A D-U-N-S Number is assigned through our patented identity resolution process, (part of our DUNSRight™ data governance, which includes thousands of separate automated checks.) The D-U-N-S Number identifies a company as being unique from any other in the [Dun &amp; Bradstreet Data Cloud](https://www.dnb.com/about-us/data-cloud.html).  It is used as the starting point for any company's [Live Business Identity](https://www.dnb.com/about-us/data-cloud/live-business-identity.html), which helps ensure you have the most accurate and up-to-date view of organizations.&quot;

For more information, see [https://www.dnb.com/duns.html](https://www.dnb.com/duns.html).">Data Universal Numbering System (DUNS) Number</a>/111111111</p><p><b>type</b>: <span title="Codes:{http://hl7.org/fhir/us/spl/CodeSystem/codesystem-organizationTypes EstablishmentRegistrant}">An organization that registers establishment organizations.</span></p><p><b>name</b>: REGISTRANT SERVICES INC</p><h3>Contacts</h3><table class="grid"><tr><td style="display: none">-</td><td><b>Purpose</b></td><td><b>Name</b></td><td><b>Telecom</b></td><td><b>Address</b></td></tr><tr><td style="display: none">*</td><td><span title="Codes:{http://terminology.hl7.org/CodeSystem/contactentity-type ADMIN}">Administrative</span></td><td>Charles Smith</td><td><a href="tel:+1-703-362-1280;ext=1234">+1-703-362-1280;ext=1234</a>, <a href="mailto:charles@anywhere.com">charles@anywhere.com</a></td><td>123 IVY LANE ROAD SMITH FALLS MD 12345 USA </td></tr></table></div>
        </text>
        <identifier>
          <system value="http://terminology.hl7.org/NamingSystem/DUNSNumber"/>
          <value value="111111111"/>
        </identifier>
        <type>
          <coding>
            <system value="http://hl7.org/fhir/us/spl/CodeSystem/codesystem-organizationTypes"/>
            <code value="EstablishmentRegistrant"/>
          </coding>
        </type>
        <name value="REGISTRANT SERVICES INC"/>
        <contact>
          <purpose>
            <coding>
              <system value="http://terminology.hl7.org/CodeSystem/contactentity-type"/>
              <code value="ADMIN"/>
            </coding>
          </purpose>
          <name>
            <text value="Charles Smith"/>
          </name>
          <telecom>
            <system value="phone"/>
            <value value="+1-703-362-1280;ext=1234"/>
          </telecom>
          <telecom>
            <system value="email"/>
            <value value="charles@anywhere.com"/>
          </telecom>
          <address>
            <line value="123 IVY LANE ROAD"/>
            <city value="SMITH FALLS"/>
            <state value="MD"/>
            <postalCode value="12345"/>
            <country value="USA"/>
          </address>
        </contact>
      </Organization>
    </resource>
  </entry>
  <entry>
    <fullUrl value="http://example.org/Organization/ExampleEstablishment"/>
    <resource>
      <Organization>
        <id value="ExampleEstablishment"/>
        <meta>
          <profile value="http://hl7.org/fhir/us/spl/StructureDefinition/EstablishmentOrganization"/>
        </meta>
        <text>
          <status value="generated"/><div xmlns="http://www.w3.org/1999/xhtml"><a name="Organization_ExampleEstablishment"> </a><p class="res-header-id"><b>Generated Narrative: Organization ExampleEstablishment</b></p><a name="ExampleEstablishment"> </a><a name="hcExampleEstablishment"> </a><a name="ExampleEstablishment-en-US"> </a><div style="display: inline-block; background-color: #d9e0e7; padding: 6px; margin: 4px; border: 1px solid #8da1b4; border-radius: 5px; line-height: 60%"><p style="margin-bottom: 0px"/><p style="margin-bottom: 0px">Profile: <a href="StructureDefinition-EstablishmentOrganization.html">EstablishmentOrganization</a></p></div><p><b>identifier</b>: <a href="http://terminology.hl7.org/6.2.0/NamingSystem-DUNSNumber.html" title="&quot;The Dun &amp; Bradstreet D-U-N-S® Number (short for Data Universal Numbering System) is a nine-digit unique identifier for businesses. Hundreds of millions of D-U-N-S Numbers exist for companies across the globe.

A D-U-N-S Number is assigned through our patented identity resolution process, (part of our DUNSRight™ data governance, which includes thousands of separate automated checks.) The D-U-N-S Number identifies a company as being unique from any other in the [Dun &amp; Bradstreet Data Cloud](https://www.dnb.com/about-us/data-cloud.html).  It is used as the starting point for any company's [Live Business Identity](https://www.dnb.com/about-us/data-cloud/live-business-identity.html), which helps ensure you have the most accurate and up-to-date view of organizations.&quot;

For more information, see [https://www.dnb.com/duns.html](https://www.dnb.com/duns.html).">Data Universal Numbering System (DUNS) Number</a>/222222222</p><p><b>type</b>: <span title="Codes:{http://hl7.org/fhir/us/spl/CodeSystem/codesystem-organizationTypes Establishment}">An organization that provides operations in the manufacturing of a product.</span></p><p><b>name</b>: EXAMPLE ESTABLISHMENT INC.</p><h3>Contacts</h3><table class="grid"><tr><td style="display: none">-</td><td><b>Purpose</b></td><td><b>Name</b></td><td><b>Telecom</b></td><td><b>Address</b></td></tr><tr><td style="display: none">*</td><td><span title="Codes:{http://hl7.org/fhir/us/spl/CodeSystem/codesystem-organizationContactType ADDRESS}">Organization Address</span></td><td> </td><td> </td><td>123 IVY LANE ROAD SMITH FALLS ONT 12345 CAN </td></tr><tr><td style="display: none">*</td><td><span title="Codes:{http://terminology.hl7.org/CodeSystem/contactentity-type ADMIN}">Administrative</span></td><td>Charles Smith</td><td><a href="tel:+011-703-362-1280">+011-703-362-1280</a>, <a href="mailto:charles@anywhere.com">charles@anywhere.com</a></td><td>123 IVY LANE ROAD SMITH FALLS MD 12345 USA </td></tr></table><hr/><blockquote><p class="res-header-id"><b>Generated Narrative: OrganizationAffiliation #ExampleImporterAffiliation</b></p><a name="ExampleEstablishment/ExampleImporterAffiliation"> </a><a name="hcExampleEstablishment/ExampleImporterAffiliation"> </a><a name="ExampleEstablishment/ExampleImporterAffiliation-en-US"> </a><div style="display: inline-block; background-color: #d9e0e7; padding: 6px; margin: 4px; border: 1px solid #8da1b4; border-radius: 5px; line-height: 60%"><p style="margin-bottom: 0px"/><p style="margin-bottom: 0px">Profile: <a href="StructureDefinition-ImporterAffiliation.html">ImporterAffiliation</a></p></div><p><b>organization</b>: <a href="#hcExampleEstablishment">Organization EXAMPLE ESTABLISHMENT INC.</a></p><p><b>participatingOrganization</b>: <a href="#hcExampleEstablishment/ExampleImporter">Organization Example Importer</a></p><p><b>code</b>: <span title="Codes:{http://ncicb.nci.nih.gov/xml/owl/EVS/Thesaurus.owl C73599}">IMPORT</span></p></blockquote><hr/><blockquote><p class="res-header-id"><b>Generated Narrative: OrganizationAffiliation #ExampleEstablishmentUSAgentAffiliation</b></p><a name="ExampleEstablishment/ExampleEstablishmentUSAgentAffiliation"> </a><a name="hcExampleEstablishment/ExampleEstablishmentUSAgentAffiliation"> </a><a name="ExampleEstablishment/ExampleEstablishmentUSAgentAffiliation-en-US"> </a><div style="display: inline-block; background-color: #d9e0e7; padding: 6px; margin: 4px; border: 1px solid #8da1b4; border-radius: 5px; line-height: 60%"><p style="margin-bottom: 0px"/><p style="margin-bottom: 0px">Profile: <a href="StructureDefinition-EstablishmentUSAgentAffiliation.html">EstablishmentUSAgentAffiliation</a></p></div><p><b>organization</b>: <a href="#hcExampleEstablishment">Organization EXAMPLE ESTABLISHMENT INC.</a></p><p><b>participatingOrganization</b>: <a href="#hcExampleEstablishment/SampleUSAgent">Organization National Pharma of India Inc. US Agent</a></p><p><b>code</b>: <span title="Codes:{http://ncicb.nci.nih.gov/xml/owl/EVS/Thesaurus.owl C73330}">UNITED STATES AGENT</span></p></blockquote><hr/><blockquote><p class="res-header-id"><b>Generated Narrative: HealthcareService #ExampleEstablishmentOperation</b></p><a name="ExampleEstablishment/ExampleEstablishmentOperation"> </a><a name="hcExampleEstablishment/ExampleEstablishmentOperation"> </a><a name="ExampleEstablishment/ExampleEstablishmentOperation-en-US"> </a><div style="display: inline-block; background-color: #d9e0e7; padding: 6px; margin: 4px; border: 1px solid #8da1b4; border-radius: 5px; line-height: 60%"><p style="margin-bottom: 0px"/><p style="margin-bottom: 0px">Profile: <a href="StructureDefinition-EstablishmentBusinessOperation.html">EstablishmentBusinessOperation</a></p></div><p><b>providedBy</b>: <a href="#hcExampleEstablishment">Organization EXAMPLE ESTABLISHMENT INC.</a></p><p><b>type</b>: <span title="Codes:{http://ncicb.nci.nih.gov/xml/owl/EVS/Thesaurus.owl C43360}">manufacture</span></p><p><b>serviceProvisionCode</b>: <span title="Codes:{http://ncicb.nci.nih.gov/xml/owl/EVS/Thesaurus.owl C131708}">manufactures human over-the-counter drug products produced under a monograph</span></p></blockquote><hr/><blockquote><p class="res-header-id"><b>Generated Narrative: Organization #ExampleImporter</b></p><a name="ExampleEstablishment/ExampleImporter"> </a><a name="hcExampleEstablishment/ExampleImporter"> </a><a name="ExampleEstablishment/ExampleImporter-en-US"> </a><div style="display: inline-block; background-color: #d9e0e7; padding: 6px; margin: 4px; border: 1px solid #8da1b4; border-radius: 5px; line-height: 60%"><p style="margin-bottom: 0px"/><p style="margin-bottom: 0px">Profile: <a href="StructureDefinition-ImporterOrganization.html">ImporterOrganization</a></p></div><p><b>identifier</b>: <a href="http://terminology.hl7.org/6.2.0/NamingSystem-DUNSNumber.html" title="&quot;The Dun &amp; Bradstreet D-U-N-S® Number (short for Data Universal Numbering System) is a nine-digit unique identifier for businesses. Hundreds of millions of D-U-N-S Numbers exist for companies across the globe.

A D-U-N-S Number is assigned through our patented identity resolution process, (part of our DUNSRight™ data governance, which includes thousands of separate automated checks.) The D-U-N-S Number identifies a company as being unique from any other in the [Dun &amp; Bradstreet Data Cloud](https://www.dnb.com/about-us/data-cloud.html).  It is used as the starting point for any company's [Live Business Identity](https://www.dnb.com/about-us/data-cloud/live-business-identity.html), which helps ensure you have the most accurate and up-to-date view of organizations.&quot;

For more information, see [https://www.dnb.com/duns.html](https://www.dnb.com/duns.html).">Data Universal Numbering System (DUNS) Number</a>/888888888</p><p><b>type</b>: <span title="Codes:{http://hl7.org/fhir/us/spl/CodeSystem/codesystem-organizationTypes Importer}">An organization that imports products.</span></p><p><b>name</b>: Example Importer</p><h3>Contacts</h3><table class="grid"><tr><td style="display: none">-</td><td><b>Telecom</b></td></tr><tr><td style="display: none">*</td><td><a href="tel:+1-908-999-1212;ext=444">+1-908-999-1212;ext=444</a>, <a href="mailto:jdoe_2@npoiinc.net">jdoe_2@npoiinc.net</a></td></tr></table></blockquote><hr/><blockquote><p class="res-header-id"><b>Generated Narrative: Organization #SampleUSAgent</b></p><a name="ExampleEstablishment/SampleUSAgent"> </a><a name="hcExampleEstablishment/SampleUSAgent"> </a><a name="ExampleEstablishment/SampleUSAgent-en-US"> </a><div style="display: inline-block; background-color: #d9e0e7; padding: 6px; margin: 4px; border: 1px solid #8da1b4; border-radius: 5px; line-height: 60%"><p style="margin-bottom: 0px"/><p style="margin-bottom: 0px">Profile: <a href="StructureDefinition-USAgentOrganization.html">USAgentOrganization</a></p></div><p><b>identifier</b>: <a href="http://terminology.hl7.org/6.2.0/NamingSystem-DUNSNumber.html" title="&quot;The Dun &amp; Bradstreet D-U-N-S® Number (short for Data Universal Numbering System) is a nine-digit unique identifier for businesses. Hundreds of millions of D-U-N-S Numbers exist for companies across the globe.

A D-U-N-S Number is assigned through our patented identity resolution process, (part of our DUNSRight™ data governance, which includes thousands of separate automated checks.) The D-U-N-S Number identifies a company as being unique from any other in the [Dun &amp; Bradstreet Data Cloud](https://www.dnb.com/about-us/data-cloud.html).  It is used as the starting point for any company's [Live Business Identity](https://www.dnb.com/about-us/data-cloud/live-business-identity.html), which helps ensure you have the most accurate and up-to-date view of organizations.&quot;

For more information, see [https://www.dnb.com/duns.html](https://www.dnb.com/duns.html).">Data Universal Numbering System (DUNS) Number</a>/888888888</p><p><b>type</b>: <span title="Codes:{http://hl7.org/fhir/us/spl/CodeSystem/codesystem-organizationTypes USAgent}">An organization that acts on the behalf of a Labeler or Establishment in the US.</span></p><p><b>name</b>: National Pharma of India Inc. US Agent</p><h3>Contacts</h3><table class="grid"><tr><td style="display: none">-</td><td><b>Telecom</b></td></tr><tr><td style="display: none">*</td><td><a href="tel:+1-908-999-1212">+1-908-999-1212</a>, <a href="mailto:jdoe_2@npoiinc.net">jdoe_2@npoiinc.net</a></td></tr></table></blockquote></div>
        </text>
        <contained>
          <OrganizationAffiliation>
            <id value="ExampleImporterAffiliation"/>
            <meta>
              <profile value="http://hl7.org/fhir/us/spl/StructureDefinition/ImporterAffiliation"/>
            </meta>
            <organization>
              <reference value="#"/>
            </organization>
            <participatingOrganization>
              <reference value="#ExampleImporter"/>
            </participatingOrganization>
            <code>
              <coding>
                <system value="http://ncicb.nci.nih.gov/xml/owl/EVS/Thesaurus.owl"/>
                <code value="C73599"/>
              </coding>
            </code>
          </OrganizationAffiliation>
        </contained>
        <contained>
          <OrganizationAffiliation>
            <id value="ExampleEstablishmentUSAgentAffiliation"/>
            <meta>
              <profile value="http://hl7.org/fhir/us/spl/StructureDefinition/EstablishmentUSAgentAffiliation"/>
            </meta>
            <organization>
              <reference value="#"/>
            </organization>
            <participatingOrganization>
              <reference value="#SampleUSAgent"/>
            </participatingOrganization>
            <code>
              <coding>
                <system value="http://ncicb.nci.nih.gov/xml/owl/EVS/Thesaurus.owl"/>
                <code value="C73330"/>
              </coding>
            </code>
          </OrganizationAffiliation>
        </contained>
        <contained>
          <HealthcareService>
            <id value="ExampleEstablishmentOperation"/>
            <meta>
              <profile value="http://hl7.org/fhir/us/spl/StructureDefinition/EstablishmentBusinessOperation"/>
            </meta>
            <providedBy>
              <reference value="#"/>
            </providedBy>
            <type>
              <coding>
                <system value="http://ncicb.nci.nih.gov/xml/owl/EVS/Thesaurus.owl"/>
                <code value="C43360"/>
                <display value="manufacture"/>
              </coding>
            </type>
            <serviceProvisionCode>
              <coding>
                <system value="http://ncicb.nci.nih.gov/xml/owl/EVS/Thesaurus.owl"/>
                <code value="C131708"/>
                <display value="manufactures human over-the-counter drug products produced under a monograph"/>
              </coding>
            </serviceProvisionCode>
          </HealthcareService>
        </contained>
        <contained>
          <Organization>
            <id value="ExampleImporter"/>
            <meta>
              <profile value="http://hl7.org/fhir/us/spl/StructureDefinition/ImporterOrganization"/>
            </meta>
            <identifier>
              <system value="http://terminology.hl7.org/NamingSystem/DUNSNumber"/>
              <value value="888888888"/>
            </identifier>
            <type>
              <coding>
                <system value="http://hl7.org/fhir/us/spl/CodeSystem/codesystem-organizationTypes"/>
                <code value="Importer"/>
              </coding>
            </type>
            <name value="Example Importer"/>
            <contact>
              <telecom>
                <system value="phone"/>
                <value value="+1-908-999-1212;ext=444"/>
              </telecom>
              <telecom>
                <system value="email"/>
                <value value="jdoe_2@npoiinc.net"/>
              </telecom>
            </contact>
          </Organization>
        </contained>
        <contained>
          <Organization>
            <id value="SampleUSAgent"/>
            <meta>
              <profile value="http://hl7.org/fhir/us/spl/StructureDefinition/USAgentOrganization"/>
            </meta>
            <identifier>
              <system value="http://terminology.hl7.org/NamingSystem/DUNSNumber"/>
              <value value="888888888"/>
            </identifier>
            <type>
              <coding>
                <system value="http://hl7.org/fhir/us/spl/CodeSystem/codesystem-organizationTypes"/>
                <code value="USAgent"/>
              </coding>
            </type>
            <name value="National Pharma of India Inc. US Agent"/>
            <contact>
              <telecom>
                <system value="phone"/>
                <value value="+1-908-999-1212"/>
              </telecom>
              <telecom>
                <system value="email"/>
                <value value="jdoe_2@npoiinc.net"/>
              </telecom>
            </contact>
          </Organization>
        </contained>
        <identifier>
          <system value="http://terminology.hl7.org/NamingSystem/DUNSNumber"/>
          <value value="222222222"/>
        </identifier>
        <type>
          <coding>
            <system value="http://hl7.org/fhir/us/spl/CodeSystem/codesystem-organizationTypes"/>
            <code value="Establishment"/>
          </coding>
        </type>
        <name value="EXAMPLE ESTABLISHMENT INC."/>
        <contact>
          <purpose>
            <coding>
              <system value="http://hl7.org/fhir/us/spl/CodeSystem/codesystem-organizationContactType"/>
              <code value="ADDRESS"/>
            </coding>
          </purpose>
          <address>
            <line value="123 IVY LANE ROAD"/>
            <city value="SMITH FALLS"/>
            <state value="ONT"/>
            <postalCode value="12345"/>
            <country value="CAN"/>
          </address>
        </contact>
        <contact>
          <purpose>
            <coding>
              <system value="http://terminology.hl7.org/CodeSystem/contactentity-type"/>
              <code value="ADMIN"/>
            </coding>
          </purpose>
          <name>
            <text value="Charles Smith"/>
          </name>
          <telecom>
            <system value="phone"/>
            <value value="+011-703-362-1280"/>
          </telecom>
          <telecom>
            <system value="email"/>
            <value value="charles@anywhere.com"/>
          </telecom>
          <address>
            <line value="123 IVY LANE ROAD"/>
            <city value="SMITH FALLS"/>
            <state value="MD"/>
            <postalCode value="12345"/>
            <country value="USA"/>
          </address>
        </contact>
      </Organization>
    </resource>
  </entry>
</Bundle>