{"resourceType":"Bundle","type":"transaction","entry":[{"resource":{"resourceType":"List","title":"Problems List","entry":[{"date":"2017-05-11T10:01:09+02:00","item":{"reference":"Condition/cond0"}},{"date":"2017-05-11T10:01:09+02:00","item":{"reference":"Condition/cond1"}},{"date":"2017-05-11T10:01:09+02:00","item":{"reference":"Condition/cond2"}},{"date":"2017-05-11T10:01:09+02:00","item":{"reference":"Condition/cond3"}},{"date":"2017-05-11T10:01:09+02:00","item":{"reference":"Condition/cond4"}},{"date":"2017-05-11T10:01:09+02:00","item":{"reference":"Condition/cond5"}},{"date":"2017-05-11T10:01:09+02:00","item":{"reference":"Condition/cond6"}},{"date":"2017-05-11T10:01:09+02:00","item":{"reference":"Condition/cond7"}},{"date":"2017-05-11T10:01:09+02:00","item":{"reference":"Condition/cond8"}},{"date":"2017-05-11T10:01:09+02:00","item":{"reference":"Condition/cond9"}},{"date":"2017-05-11T10:01:09+02:00","item":{"reference":"Condition/cond10"}}],"date":"2017-05-11T10:01:09+02:00","subject":{"reference":"Patient/86938"},"status":"current","mode":"snapshot","code":{"coding":[{"code":"problems","system":"http://hl7.org/fhir/list-example-use-codes"}]}},"request":{"method":"POST","url":"List/"}},{"resource":{"resourceType":"Condition","text":{"status":"generated","div":"<div xmlns='http://www.w3.org/1999/xhtml'>Asthma</div>"},"clinicalStatus":"active","verificationStatus":"confirmed","category":{"coding":[{"code":"diagnosis","system":"http://hl7.org/fhir/condition-category","display":"diagnosis"},{"code":"14657009","system":"http://snomed.info/sct","display":"Diagnosis"}],"text":"Diagnosis"},"severity":{"coding":[{"code":"371923033","system":"http://snomed.info/ct","display":"mild to moderate"}],"text":"mild to moderate"},"code":{"coding":[{"code":"195917001","system":"http://snomed.info/ct","display":"asthma"}],"text":"asthma"},"onsetAge":{"value":"14","code":"a","system":"http://unitsofmeasure.org"},"subject":{"reference":"Patient/86938"},"id":"cond0"},"request":{"method":"POST","url":"Condition/"}},{"resource":{"resourceType":"Condition","text":{"status":"generated","div":"<div xmlns='http://www.w3.org/1999/xhtml'>Diabetes</div>"},"clinicalStatus":"active","verificationStatus":"confirmed","category":{"coding":[{"code":"diagnosis","system":"http://hl7.org/fhir/condition-category","display":"diagnosis"},{"code":"14657009","system":"http://snomed.info/sct","display":"Diagnosis"}],"text":"Diagnosis"},"severity":{"coding":[{"code":"6736007","system":"http://snomed.info/ct","display":"moderate"}],"text":"moderate"},"code":{"coding":[{"code":"73211009","system":"http://snomed.info/ct","display":"diabetes"}],"text":"diabetes"},"onsetAge":{"value":"60","code":"a","system":"http://unitsofmeasure.org"},"subject":{"reference":"Patient/86938"},"id":"cond1"},"request":{"method":"POST","url":"Condition/"}},{"resource":{"resourceType":"Condition","text":{"status":"generated","div":"<div xmlns='http://www.w3.org/1999/xhtml'>Hypertension</div>"},"clinicalStatus":"active","verificationStatus":"confirmed","category":{"coding":[{"code":"diagnosis","system":"http://hl7.org/fhir/condition-category","display":"diagnosis"},{"code":"14657009","system":"http://snomed.info/sct","display":"Diagnosis"}],"text":"Diagnosis"},"severity":{"coding":[{"code":"255604002","system":"http://snomed.info/ct","display":"mild"}],"text":"Mild"},"code":{"coding":[{"code":"38341003","system":"http://snomed.info/ct","display":"hypertension"}],"text":"hypertension"},"onsetAge":{"value":"68","code":"a","system":"http://unitsofmeasure.org"},"subject":{"reference":"Patient/86938"},"id":"cond2"},"request":{"method":"POST","url":"Condition/"}},{"resource":{"resourceType":"Condition","text":{"status":"generated","div":"<div xmlns='http://www.w3.org/1999/xhtml'>Depression</div>"},"clinicalStatus":"active","verificationStatus":"confirmed","category":{"coding":[{"code":"diagnosis","system":"http://hl7.org/fhir/condition-category","display":"diagnosis"},{"code":"14657009","system":"http://snomed.info/sct","display":"Diagnosis"}],"text":"Diagnosis"},"severity":{"coding":[{"code":"6736007","system":"http://snomed.info/ct","display":"moderate"}],"text":"Moderate"},"code":{"coding":[{"code":"35489007","system":"http://snomed.info/ct","display":"depression"}],"text":"depression"},"onsetAge":{"value":"74","code":"a","system":"http://unitsofmeasure.org"},"subject":{"reference":"Patient/86938"},"id":"cond3"},"request":{"method":"POST","url":"Condition/"}},{"resource":{"resourceType":"Condition","text":{"status":"generated","div":"<div xmlns='http://www.w3.org/1999/xhtml'>Neuropathic pain</div>"},"clinicalStatus":"active","verificationStatus":"confirmed","category":{"coding":[{"code":"diagnosis","system":"http://hl7.org/fhir/condition-category","display":"diagnosis"},{"code":"14657009","system":"http://snomed.info/sct","display":"Diagnosis"}],"text":"Diagnosis"},"severity":{"coding":[{"code":"6736007","system":"http://snomed.info/ct","display":"moderate"}],"text":"moderate"},"code":{"coding":[{"code":"247389009","system":"http://snomed.info/ct","display":"neuropathic pain"}],"text":"neuropathic pain"},"onsetAge":{"value":"75","code":"a","system":"http://unitsofmeasure.org"},"subject":{"reference":"Patient/86938"},"id":"cond4"},"request":{"method":"POST","url":"Condition/"}},{"resource":{"resourceType":"Condition","text":{"status":"generated","div":"<div xmlns='http://www.w3.org/1999/xhtml'>Rheumatoid Arthritis</div>"},"clinicalStatus":"active","verificationStatus":"confirmed","category":{"coding":[{"code":"diagnosis","system":"http://hl7.org/fhir/condition-category","display":"diagnosis"},{"code":"14657009","system":"http://snomed.info/sct","display":"Diagnosis"}],"text":"Diagnosis"},"severity":{"coding":[{"code":"6736007","system":"http://snomed.info/ct","display":"moderate"}],"text":"Moderate"},"code":{"coding":[{"code":"69896004","system":"http://snomed.info/ct","display":"rheumatoid arthritis"}],"text":"rheumatoid arthritis - both hands"},"bodySite":[{"coding":[{"code":"12861001","system":"http://snomed.info/ct","display":"both hands"}],"text":"both hands"}],"evidence":[{"code":{"coding":[{"code":"57676002","system":"http://snomed.info/ct","display":"Painful Joint"}],"text":"Painful joint"}}],"onsetAge":{"value":"72","code":"a","system":"http://unitsofmeasure.org"},"subject":{"reference":"Patient/86938"},"id":"cond5"},"request":{"method":"POST","url":"Condition/"}},{"resource":{"resourceType":"Condition","text":{"status":"generated","div":"<div xmlns='http://www.w3.org/1999/xhtml'>Rheumatoid arthritis - left elbow</div>"},"clinicalStatus":"active","verificationStatus":"confirmed","category":{"coding":[{"code":"diagnosis","system":"http://hl7.org/fhir/condition-category","display":"diagnosis"},{"code":"14657009","system":"http://snomed.info/sct","display":"Diagnosis"}],"text":"Diagnosis"},"severity":{"coding":[{"code":"371923033","system":"http://snomed.info/ct","display":"mild to moderate"}],"text":"Diagnosis"},"code":{"coding":[{"code":"69896004","system":"http://snomed.info/ct","display":"rheumatoid arthritis"}],"text":"rheumatoid arthritis - left elbow"},"Site":[{"coding":[{"code":"1927002","system":"http://snomed.info/ct","display":"left elbow"}],"text":"left elbow"}],"evidence":[{"code":{"coding":[{"code":"57676002","system":"http://snomed.info/ct","display":"Painful Joint"}],"text":"Painful joint"}}],"onsetAge":{"value":"74","code":"a","system":"http://unitsofmeasure.org"},"subject":{"reference":"Patient/86938"},"id":"cond6"},"request":{"method":"POST","url":"Condition/"}},{"resource":{"resourceType":"Condition","text":{"status":"generated","div":"<div xmlns='http://www.w3.org/1999/xhtml'>GERD</div>"},"clinicalStatus":"active","verificationStatus":"confirmed","category":{"coding":[{"code":"diagnosis","system":"http://hl7.org/fhir/condition-category","display":"diagnosis"},{"code":"14657009","system":"http://snomed.info/sct","display":"Diagnosis"}],"text":"Diagnosis"},"severity":{"coding":[{"code":"371923033","system":"http://snomed.info/ct","display":"moderate"}],"text":"Moderate"},"code":{"coding":[{"code":"235595009","system":"http://snomed.info/ct","display":"GERD"}],"text":"GERD"},"onsetAge":{"value":"66","code":"a","system":"http://unitsofmeasure.org"},"subject":{"reference":"Patient/86938"},"id":"cond7"},"request":{"method":"POST","url":"Condition/"}},{"resource":{"resourceType":"Condition","text":{"status":"generated","div":"<div xmlns='http://www.w3.org/1999/xhtml'>Hypercholesterolaemia</div>"},"clinicalStatus":"active","verificationStatus":"confirmed","category":{"coding":[{"code":"diagnosis","system":"http://hl7.org/fhir/condition-category","display":"diagnosis"},{"code":"14657009","system":"http://snomed.info/sct","display":"Diagnosis"}],"text":"Diagnosis"},"severity":{"coding":[{"code":"6736007","system":"http://snomed.info/ct","display":"moderate"}],"text":"Moderate"},"code":{"coding":[{"code":"13644009","system":"http://snomed.info/ct","display":"high cholesterol"}],"text":"high cholesterol"},"onsetAge":{"value":"68","code":"a","system":"http://unitsofmeasure.org"},"subject":{"reference":"Patient/86938"},"id":"cond8"},"request":{"method":"POST","url":"Condition/"}},{"resource":{"resourceType":"Condition","text":{"status":"generated","div":"<div xmlns='http://www.w3.org/1999/xhtml'>Onychomycosis</div>"},"clinicalStatus":"active","verificationStatus":"confirmed","category":{"coding":[{"code":"diagnosis","system":"http://hl7.org/fhir/condition-category","display":"diagnosis"},{"code":"14657009","system":"http://snomed.info/sct","display":"Diagnosis"}],"text":"Diagnosis"},"severity":{"coding":[{"code":"24484000","system":"http://snomed.info/ct","display":"severe"}],"text":"severe"},"code":{"coding":[{"code":"414941998","system":"http://snomed.info/ct","display":"onychomycosis"}],"text":"onychomycosis"},"onsetAge":{"value":"77","code":"a","system":"http://unitsofmeasure.org"},"subject":{"reference":"Patient/86938"},"id":"cond9"},"request":{"method":"POST","url":"Condition/"}},{"resource":{"resourceType":"Condition","text":{"status":"generated","div":"<div xmlns='http://www.w3.org/1999/xhtml'>Angina</div>"},"clinicalStatus":"active","verificationStatus":"confirmed","category":{"coding":[{"code":"diagnosis","system":"http://hl7.org/fhir/condition-category","display":"diagnosis"},{"code":"14657009","system":"http://snomed.info/sct","display":"Diagnosis"}],"text":"Diagnosis"},"severity":{"coding":[{"code":"371923033","system":"http://snomed.info/ct","display":"moderate"}],"text":"Moderate"},"code":{"coding":[{"code":"194818000","system":"http://snomed.info/ct","display":"angina"}],"text":"angina"},"onsetAge":{"value":"76","code":"a","system":"http://unitsofmeasure.org"},"evidence":[{"code":{"coding":[{"code":"29857009","system":"http://snomed.info/ct","display":"Chest Pain"}],"text":"Chest Pain"}}],"subject":{"reference":"Patient/86938"},"id":"cond10"},"request":{"method":"POST","url":"Condition/"}}]}
