<!-- Example Provided by Rene Spronk -->
<Bundle xmlns="http://hl7.org/fhir">
    <id value="ringholm1430996763590912"/>
    <type value="transaction"/>
    <entry>
        <resource>
            <Provenance>
                <id value="ringholm1430996763591053"/>
                <text>
                    <status value="generated"/>
                    <div xmlns="http://www.w3.org/1999/xhtml">Authored on 15-Feb 2015 by GHH.</div>
                </text>
                <target>
                    <!-- unversioned, part of a transaction -->
                    <reference value="Patient/555-44-4444"/>
                </target>
                <recorded value="2015-05-07T13:06:03+01:00"/>
                <reason>
                    <text value="Patient validated demographics."/>
                </reason>
                <agent>
                    <role>
                        <system value="http://hl7.org/fhir/provenance-participant-role"/>
                        <code value="author"/>
                    </role>
                    <type>
                        <system value="http://hl7.org/fhir/provenance-participant-type"/>
                        <code value="patient"/>
                    </type>
                    <referenceReference>
                        <reference value="Patient/555-44-4444"/>
                        <display value="Patient Everywoman"/>
                    </referenceReference>
                    <display value="Eve Everywoman"/>
                </agent>
            </Provenance>
        </resource>
        <request>
            <method value="POST"/>
        </request>
    </entry>
    <entry>
        <resource>
            <Patient>
                <id value="555-44-4444"/>
                <extension url="http://ihe.net/ITI-78/Profile/pdqm#mothersMaidenName">
                    <valueHumanName>
                        <family value="Jones"/>
                    </valueHumanName>
                </extension>
                <identifier>
                    <use value="official"/>
                    <system value="http://ghh.org/patient"/>
                    <value value="555-44-4444"/>
                </identifier>
                <identifier>
                    <use value="official"/>
                    <system value="http://www.ohio.gov/dmv/driverslicence"/>
                    <value value="67-A4335"/>
                    <period>
                        <end value="2003-05-20"/>
                    </period>
                </identifier>
                <name>
                    <use value="official"/>
                    <family value="Everywoman"/>
                    <given value="Eve E."/>
                </name>
                <telecom>
                    <system value="phone"/>
                    <value value="(206)3345232"/>
                    <use value="home"/>
                </telecom>
                <telecom>
                    <system value="phone"/>
                    <value value="(206)752-121"/>
                    <use value="work"/>
                </telecom>
                <gender value="female"/>
                <birthDate value="1962-03-20"/>
                <address>
                    <line value="153 Fernwood Dr."/>
                    <city value="Statesville"/>
                    <state value="OH"/>
                    <postalCode value="35292"/>
                </address>
                <managingOrganization>
                    <reference value="Organization/GHH"/>
                    <display value="Good Health Hospital"/>
                </managingOrganization>
                <link>
                    <other>
                        <reference value="Patient/temp6789"/>
                    </other>
                    <type value="seealso"/>
                </link>
                <active value="true"/>
            </Patient>
        </resource>
        <request>
            <method value="PUT"/>
            <url value="Patient/?identifier=http://ghh.org/patient%7C555-44-4444"/>
        </request>
    </entry>
    <entry>
        <resource>
            <Patient>
                <!-- Jane Doe registered in the emergency department -->
                <id value="temp6789"/>
                <identifier>
                    <use value="temp"/>
                    <system value="http://ghh.org/patient"/>
                    <value value="temp6789"/>
                </identifier>
                <name>
                    <use value="temp"/>
                    <family value="Doe 6789"/>
                    <given value="Jane"/>
                </name>
                <gender value="female"/>
                <managingOrganization>
                    <reference value="Organization/GHH"/>
                    <display value="Good Health Hospital"/>
                </managingOrganization>
                <link>
                    <other>
                        <reference value="Patient/555-44-4444"/>
                    </other>
                    <type value="replaces"/>
                </link>
                <active value="true"/>
            </Patient>
        </resource>
        <request>
            <method value="PUT"/>
            <url value="Patient/?identifier=http://ghh.org/patient%7Ctemp6789"/>
        </request>
    </entry>
    <entry>
        <resource>
            <Organization> 
                <id value="GHH"/>
                <identifier>
                    <!-- Identifier for the GHH hospital -->
                    <use value="official"/>
                    <system value="http://ghh.org/department"/>
                    <value value="GHH"/>
                </identifier>
                <name value="Good Health Hospital"/>
                <type>
                    <!-- GHH is a Hospital -->
                    <coding>
                        <system value="http://snomed.info/sct"/>
                        <code value="22232009"/>
                        <display value="Hospital"/>
                    </coding>
                </type>
                <active value="true"/>
            </Organization>
        </resource>
        <request>
            <method value="POST"/>
            <url value="Organization"/>
            <ifNoneExist value="Organization/?identifier=http://ghh.org/department%7CGHH"/>
        </request>
    </entry>
</Bundle>

