{
  "resourceType": "Bundle",
  "id": "c52bd41e-5e0a-45fc-877a-6e245e638871",
  "meta": {
    "lastUpdated": "2016-11-07T16:50:40.867-05:00"
  },
  "type": "transaction",
  "total": 8,
  "entry": [
    {
      "fullUrl": "QuestionnaireResponse/QR3301",
      "resource": {
        "resourceType": "QuestionnaireResponse",
        "id": "QR3301",
        "meta": {
          "versionId": "1",
          "lastUpdated": "2016-11-04T17:22:43.970-04:00"
        },
        "questionnaire": {
          "reference": "Questionnaire/profile"
        },
        "subject": {
          "reference": "Patient/PT3295"
        },
        "authored": "2016-11-04T17:21:06-04:00",
        "group": {
          "group": [
            {
              "linkId": "basic",
              "question": [
                {
                  "linkId": "schoolType",
                  "answer": [
                    {
                      "valueCoding": {
                        "system": "http://ehealthinnovation.org/icc/ns/schooltype",
                        "code": "PT"
                      }
                    }
                  ]
                },
                {
                  "linkId": "workType",
                  "answer": [
                    {
                      "valueCoding": {
                        "system": "http://ehealthinnovation.org/icc/ns/worktype",
                        "code": "PT"
                      }
                    }
                  ]
                }
              ]
            }
          ]
        }
      },
      "request": {
        "method": "PUT", "url": "QuestionnaireResponse/QR3301"
      }
    },
    {
      "fullUrl": "QuestionnaireResponse/QR3300",
      "resource": {
        "resourceType": "QuestionnaireResponse",
        "id": "QR3300",
        "meta": {
          "versionId": "1",
          "lastUpdated": "2016-11-04T17:22:43.970-04:00"
        },
        "questionnaire": {
          "reference": "Questionnaire/profile"
        },
        "subject": {
          "reference": "Patient/PT3295"
        },
        "authored": "2016-11-04T17:21:51-04:00",
        "group": {
          "group": [
            {
              "linkId": "basic",
              "question": [
                {
                  "linkId": "schoolType",
                  "answer": [
                    {
                      "valueCoding": {
                        "system": "http://ehealthinnovation.org/icc/ns/schooltype",
                        "code": "PT"
                      }
                    }
                  ]
                },
                {
                  "linkId": "workType",
                  "answer": [
                    {
                      "valueCoding": {
                        "system": "http://ehealthinnovation.org/icc/ns/worktype",
                        "code": "PT"
                      }
                    }
                  ]
                }
              ]
            },
            {
              "linkId": "painArea",
              "question": [
                {
                  "linkId": "name",
                  "answer": [
                    {
                      "valueString": "RIGHT THIGH"
                    }
                  ]
                },
                {
                  "linkId": "painLocations",
                  "answer": [
                    {
                      "valueCoding": {
                        "system": "http://snomed.info/sct",
                        "code": "209570001"
                      }
                    }
                  ]
                },
                {
                  "linkId": "painQualities",
                  "answer": [
                    {
                      "valueCoding": {
                        "system": "http://ehealthinnovation.org/icc/ns/painquality",
                        "code": "ACHING"
                      }
                    },
                    {
                      "valueCoding": {
                        "system": "http://ehealthinnovation.org/icc/ns/painquality",
                        "code": "FREEZING"
                      }
                    }
                  ]
                },
                {
                  "linkId": "painTriggers",
                  "answer": [
                    {
                      "valueCoding": {
                        "system": "http://ehealthinnovation.org/icc/ns/paintriggers",
                        "code": "ANXIETY"
                      }
                    },
                    {
                      "valueCoding": {
                        "system": "http://ehealthinnovation.org/icc/ns/paintriggers",
                        "code": "CERTAIN_FOODS"
                      }
                    }
                  ]
                }
              ]
            }
          ]
        }
      },
      "request": {
        "method": "PUT", "url": "QuestionnaireResponse/QR3300"
      }
    },
    {
      "fullUrl": "QuestionnaireResponse/QR3299",
      "resource": {
        "resourceType": "QuestionnaireResponse",
        "id": "PT3299",
        "meta": {
          "versionId": "1",
          "lastUpdated": "2016-11-04T17:22:43.970-04:00"
        },
        "questionnaire": {
          "reference": "Questionnaire/profile"
        },
        "subject": {
          "reference": "Patient/PT3295"
        },
        "authored": "2016-11-04T17:22:07-04:00",
        "group": {
          "group": [
            {
              "linkId": "basic",
              "question": [
                {
                  "linkId": "schoolType",
                  "answer": [
                    {
                      "valueCoding": {
                        "system": "http://ehealthinnovation.org/icc/ns/schooltype",
                        "code": "PT"
                      }
                    }
                  ]
                },
                {
                  "linkId": "workType",
                  "answer": [
                    {
                      "valueCoding": {
                        "system": "http://ehealthinnovation.org/icc/ns/worktype",
                        "code": "PT"
                      }
                    }
                  ]
                }
              ]
            },
            {
              "linkId": "painArea",
              "question": [
                {
                  "linkId": "name",
                  "answer": [
                    {
                      "valueString": "AREA 2233"
                    }
                  ]
                },
                {
                  "linkId": "painLocations",
                  "answer": [
                    {
                      "valueCoding": {
                        "system": "http://snomed.info/sct",
                        "code": "302553009"
                      }
                    },
                    {
                      "valueCoding": {
                        "system": "http://snomed.info/sct",
                        "code": "51185008"
                      }
                    },
                    {
                      "valueCoding": {
                        "system": "http://snomed.info/sct",
                        "code": "368107006"
                      }
                    }
                  ]
                },
                {
                  "linkId": "painQualities",
                  "answer": [
                    {
                      "valueCoding": {
                        "system": "http://ehealthinnovation.org/icc/ns/painquality",
                        "code": "SHOOTING"
                      }
                    },
                    {
                      "valueCoding": {
                        "system": "http://ehealthinnovation.org/icc/ns/painquality",
                        "code": "SPLITTING"
                      }
                    }
                  ]
                },
                {
                  "linkId": "painTriggers",
                  "answer": [
                    {
                      "valueCoding": {
                        "system": "http://ehealthinnovation.org/icc/ns/paintriggers",
                        "code": "TOO_MUCH_DOWNTIME"
                      }
                    },
                    {
                      "valueCoding": {
                        "system": "http://ehealthinnovation.org/icc/ns/paintriggers",
                        "code": "TOO_MUCH_PHYSICAL_ACTIVITY"
                      }
                    }
                  ]
                }
              ]
            },
            {
              "linkId": "painArea",
              "question": [
                {
                  "linkId": "name",
                  "answer": [
                    {
                      "valueString": "RIGHT THIGH"
                    }
                  ]
                },
                {
                  "linkId": "painLocations",
                  "answer": [
                    {
                      "valueCoding": {
                        "system": "http://snomed.info/sct",
                        "code": "209570001"
                      }
                    }
                  ]
                },
                {
                  "linkId": "painQualities",
                  "answer": [
                    {
                      "valueCoding": {
                        "system": "http://ehealthinnovation.org/icc/ns/painquality",
                        "code": "ACHING"
                      }
                    },
                    {
                      "valueCoding": {
                        "system": "http://ehealthinnovation.org/icc/ns/painquality",
                        "code": "FREEZING"
                      }
                    }
                  ]
                },
                {
                  "linkId": "painTriggers",
                  "answer": [
                    {
                      "valueCoding": {
                        "system": "http://ehealthinnovation.org/icc/ns/paintriggers",
                        "code": "ANXIETY"
                      }
                    },
                    {
                      "valueCoding": {
                        "system": "http://ehealthinnovation.org/icc/ns/paintriggers",
                        "code": "CERTAIN_FOODS"
                      }
                    }
                  ]
                }
              ]
            }
          ]
        }
      },
      "request": {
        "method": "PUT", "url": "QuestionnaireResponse/QR3299"
      }
    },
    {
      "fullUrl": "QuestionnaireResponse/QR3298",
      "resource": {
        "resourceType": "QuestionnaireResponse",
        "id": "PT3298",
        "meta": {
          "versionId": "1",
          "lastUpdated": "2016-11-04T17:22:43.970-04:00"
        },
        "questionnaire": {
          "reference": "Questionnaire/profile"
        },
        "subject": {
          "reference": "Patient/PT3295"
        },
        "authored": "2016-11-04T17:22:26-04:00",
        "group": {
          "group": [
            {
              "linkId": "basic",
              "question": [
                {
                  "linkId": "schoolType",
                  "answer": [
                    {
                      "valueCoding": {
                        "system": "http://ehealthinnovation.org/icc/ns/schooltype",
                        "code": "PT"
                      }
                    }
                  ]
                },
                {
                  "linkId": "workType",
                  "answer": [
                    {
                      "valueCoding": {
                        "system": "http://ehealthinnovation.org/icc/ns/worktype",
                        "code": "PT"
                      }
                    }
                  ]
                }
              ]
            },
            {
              "linkId": "painArea",
              "question": [
                {
                  "linkId": "name",
                  "answer": [
                    {
                      "valueString": "RIGHT THIGH"
                    }
                  ]
                },
                {
                  "linkId": "painLocations",
                  "answer": [
                    {
                      "valueCoding": {
                        "system": "http://snomed.info/sct",
                        "code": "209570001"
                      }
                    }
                  ]
                },
                {
                  "linkId": "painQualities",
                  "answer": [
                    {
                      "valueCoding": {
                        "system": "http://ehealthinnovation.org/icc/ns/painquality",
                        "code": "ACHING"
                      }
                    },
                    {
                      "valueCoding": {
                        "system": "http://ehealthinnovation.org/icc/ns/painquality",
                        "code": "FREEZING"
                      }
                    }
                  ]
                },
                {
                  "linkId": "painTriggers",
                  "answer": [
                    {
                      "valueCoding": {
                        "system": "http://ehealthinnovation.org/icc/ns/paintriggers",
                        "code": "ANXIETY"
                      }
                    },
                    {
                      "valueCoding": {
                        "system": "http://ehealthinnovation.org/icc/ns/paintriggers",
                        "code": "CERTAIN_FOODS"
                      }
                    }
                  ]
                }
              ]
            },
            {
              "linkId": "painArea",
              "question": [
                {
                  "linkId": "name",
                  "answer": [
                    {
                      "valueString": "AREA 2233"
                    }
                  ]
                },
                {
                  "linkId": "painLocations",
                  "answer": [
                    {
                      "valueCoding": {
                        "system": "http://snomed.info/sct",
                        "code": "302553009"
                      }
                    },
                    {
                      "valueCoding": {
                        "system": "http://snomed.info/sct",
                        "code": "51185008"
                      }
                    },
                    {
                      "valueCoding": {
                        "system": "http://snomed.info/sct",
                        "code": "368107006"
                      }
                    }
                  ]
                },
                {
                  "linkId": "painQualities",
                  "answer": [
                    {
                      "valueCoding": {
                        "system": "http://ehealthinnovation.org/icc/ns/painquality",
                        "code": "SHOOTING"
                      }
                    },
                    {
                      "valueCoding": {
                        "system": "http://ehealthinnovation.org/icc/ns/painquality",
                        "code": "SPLITTING"
                      }
                    }
                  ]
                },
                {
                  "linkId": "painTriggers",
                  "answer": [
                    {
                      "valueCoding": {
                        "system": "http://ehealthinnovation.org/icc/ns/paintriggers",
                        "code": "TOO_MUCH_DOWNTIME"
                      }
                    },
                    {
                      "valueCoding": {
                        "system": "http://ehealthinnovation.org/icc/ns/paintriggers",
                        "code": "TOO_MUCH_PHYSICAL_ACTIVITY"
                      }
                    }
                  ]
                }
              ]
            }
          ]
        }
      },
      "request": {
        "method": "PUT", "url": "QuestionnaireResponse/QR3298"
      }
    },
    {
      "fullUrl": "QuestionnaireResponse/QR3297",
      "resource": {
        "resourceType": "QuestionnaireResponse",
        "id": "PT3297",
        "meta": {
          "versionId": "1",
          "lastUpdated": "2016-11-04T17:22:43.970-04:00"
        },
        "questionnaire": {
          "reference": "Questionnaire/profile"
        },
        "subject": {
          "reference": "Patient/PT3295"
        },
        "authored": "2016-11-04T17:22:41-04:00",
        "group": {
          "group": [
            {
              "linkId": "basic",
              "question": [
                {
                  "linkId": "inflammationLocations",
                  "answer": [
                    {
                      "valueCoding": {
                        "system": "http://snomed.info/sct",
                        "code": "210659002"
                      }
                    }
                  ]
                },
                {
                  "linkId": "schoolType",
                  "answer": [
                    {
                      "valueCoding": {
                        "system": "http://ehealthinnovation.org/icc/ns/schooltype",
                        "code": "PT"
                      }
                    }
                  ]
                },
                {
                  "linkId": "workType",
                  "answer": [
                    {
                      "valueCoding": {
                        "system": "http://ehealthinnovation.org/icc/ns/worktype",
                        "code": "PT"
                      }
                    }
                  ]
                }
              ]
            }
          ]
        }
      },
      "request": {
        "method": "PUT", "url": "QuestionnaireResponse/PT3297"
      }
    },
    {
      "fullUrl": "https://example.com/icc-server/fhir/Questionnaire/profile",
      "resource": {
        "resourceType": "Questionnaire",
        "id": "profile",
        "meta": {
          "versionId": "1",
          "lastUpdated": "2016-10-28T10:06:59.083-04:00"
        },
        "group": {
          "group": [
            {
              "linkId": "basic",
              "question": [
                {
                  "linkId": "schoolType",
                  "type": "choice",
                  "required": true,
                  "options": {
                    "reference": "ValueSet/schooltype"
                  }
                },
                {
                  "linkId": "workType",
                  "type": "choice",
                  "required": true,
                  "options": {
                    "reference": "ValueSet/worktype"
                  }
                },
                {
                  "linkId": "inflammationLocations",
                  "type": "choice",
                  "required": false,
                  "repeats": true,
                  "options": {
                    "reference": "ValueSet/painLocation"
                  }
                }
              ]
            },
            {
              "linkId": "painArea",
              "required": true,
              "repeats": true,
              "question": [
                {
                  "linkId": "name",
                  "type": "string",
                  "required": false,
                  "repeats": false
                },
                {
                  "linkId": "painLocations",
                  "type": "choice",
                  "required": true,
                  "repeats": true,
                  "options": {
                    "reference": "ValueSet/painLocation"
                  }
                },
                {
                  "linkId": "painQualities",
                  "type": "open-choice",
                  "required": true,
                  "repeats": true,
                  "options": {
                    "reference": "ValueSet/painQuality"
                  }
                },
                {
                  "linkId": "painTriggers",
                  "type": "open-choice",
                  "required": true,
                  "repeats": true,
                  "options": {
                    "reference": "ValueSet/painTriggers"
                  }
                }
              ]
            }
          ]
        }
      },
      "request": {
        "method": "PUT", "url": "Questionnaire/profile"
      }
    },
    {
      "fullUrl": "https://example.com/icc-server/fhir/Patient/PT3295",
      "resource": {
        "resourceType": "Patient",
        "id": "PT3295",
        "meta": {
          "versionId": "5",
          "lastUpdated": "2016-11-07T16:12:56.970-05:00"
        },
        "name": [
          {
            "use": "nickname",
            "given": [
              "akib"
            ]
          },
          {
            "use": "anonymous"
          }
        ],
        "telecom": [
          {
            "system": "email"
          }
        ],
        "gender": "male",
        "birthDate": "2013",
        "photo": [
          {
            "contentType": "image/jpeg",
            "url": "https://example.com/icc-server/api/users/1431/avatar?version=2"
          }
        ]
      },
      "request": {
        "method": "PUT", "url": "Patient/PT3295"
      }
    }
  ]
}