{
	"resourceType": "Bundle",
	"id": "bundle-transaction",
	"meta": {
		"lastUpdated": "2021-04-19T20:24:48.194+00:00"
	},
	"type": "transaction",
	"entry": [
		{
			"fullUrl": "http://example.org/fhir/Patient/A1",
			"resource": {
				"resourceType": "Patient",
				"id": "A1",
				"identifier": [
					{
						"use": "usual",
						"type": {
							"coding": [
								{
									"system": "http://terminology.hl7.org/CodeSystem/v2-0203",
									"code": "MR"
								}
							]
						},
						"system": "urn:oid:1.2.36.146.595.217.0.1",
						"value": "12345"
					}
				],
				"name": [
					{
						"family": "updated new name",
						"given": [
							"Amy"
						]
					}
				],
				"gender": "male",
				"birthDate": "1977-05-24"
			},
			"request": {
				"method": "PUT",
				"url": "Patient/A1"
			}
		},
		{
			"fullUrl": "http://example.org/fhir/Patient/A2",
			"resource": {
				"resourceType": "Patient",
				"id": "A2",
				"meta": {
					"versionId": "1",
					"lastUpdated": "2021-11-03T15:18:41.352-04:00",
					"source": "#HrhETo5Ilp5ppTIn"
				},
				"name": [
					{
						"text": "Wilma Flintstone",
						"family": "Flintstone",
						"given": [
							"Wilma",
							"Wendy"
						],
						"prefix": [
							"Mrs."
						]
					}
				],
				"telecom": [
					{
						"system": "phone",
						"value": "555-675-1235",
						"use": "home"
					}
				],
				"gender": "female",
				"birthDate": "1961-05-20",
				"address": [
					{
						"line": [
							"14 TH AVENUE"
						],
						"city": "Bedrock",
						"state": "MA",
						"country": "US"
					}
				]
			},
			"request": {
				"method": "PUT",
				"url": "Patient/A2"
			}
		},
		{
			"fullUrl": "http://example.org/fhir/Patient/A3",
			"resource": {
				"resourceType": "Patient",
				"id": "A3",
				"meta": {
					"versionId": "1",
					"lastUpdated": "2021-11-03T15:18:41.352-04:00",
					"source": "#HrhETo5Ilp5ppTIn"
				},
				"name": [
					{
						"text": "Wilma Flintstone",
						"family": "Flintstone",
						"given": [
							"Wilma",
							"Wendy"
						],
						"prefix": [
							"Mrs."
						]
					}
				],
				"telecom": [
					{
						"system": "phone",
						"value": "555-675-1235",
						"use": "home"
					}
				],
				"gender": "female",
				"birthDate": "1961-05-20",
				"address": [
					{
						"line": [
							"14 TH AVENUE"
						],
						"city": "Bedrock",
						"state": "MA",
						"country": "US"
					}
				]
			},
			"request": {
				"method": "PUT",
				"url": "Patient/A3"
			}
		},
		{
			"fullUrl": "http://example.org/fhir/Group/G1",
			"resource": {
				"resourceType": "Group",
				"id": "G1",
				"text": {
					"status": "additional"
				},
				"type": "person",
				"actual": true,
				"member": [
					{
						"entity": {
							"reference": "Patient/A1"
						},
						"period": {
							"start": "2021-01-01"
						}
					},
					{
						"entity": {
							"reference": "Patient/A2"
						},
						"period": {
							"start": "2021-01-01"
						}
					}
				]
			},
			"request": {
				"method": "PUT",
				"url": "Group/G1"
			}
		},
		{
			"fullUrl": "http://example.org/fhir/Group/G2",
			"resource": {
				"resourceType": "Group",
				"id": "G2",
				"text": {
					"status": "additional"
				},
				"type": "person",
				"actual": true,
				"member": [
					{
						"entity": {
							"reference": "Patient/A1"
						},
						"period": {
							"start": "2021-01-01"
						}
					},
					{
						"entity": {
							"reference": "Patient/A3"
						},
						"period": {
							"start": "2021-01-01"
						}
					}
				]
			},
			"request": {
				"method": "PUT",
				"url": "Group/G2"
			}
		},
		{
			"fullUrl": "http://example.org/fhir/Observation/O1",
			"resource": {
				"resourceType": "Observation",
				"id": "O1",
				"meta": {
					"versionId": "1",
					"lastUpdated": "2021-11-03T15:09:32.240-04:00",
					"source": "#QZNuzoWSI2wh1Fyy"
				},
				"status": "registered",
				"code": {
					"coding": [
						{
							"system": "http://loinc.org",
							"code": "3141-9",
							"display": "Body weight Measured"
						}
					]
				},
				"subject": {
					"reference": "Patient/A1",
					"identifier": {
						"system": "http://hospital_abc/MRN",
						"value": "01374547601"
					}
				},
				"effectiveDateTime": "2020-01-05T00:00:00Z",
				"valueQuantity": {
					"value": 3.0,
					"unit": "kg",
					"system": "http://unitsofmeasure.org",
					"code": "kg"
				}
			},
			"request": {
				"method": "PUT",
				"url": "Observation/O1"
			}
		},
		{
			"fullUrl": "http://example.org/fhir/Observation/O2",
			"resource": {
				"resourceType": "Observation",
				"id": "O2",
				"meta": {
					"versionId": "1",
					"lastUpdated": "2021-11-03T15:09:32.240-04:00",
					"source": "#QZNuzoWSI2wh1Fyy"
				},
				"status": "registered",
				"code": {
					"coding": [
						{
							"system": "http://loinc.org",
							"code": "3141-9",
							"display": "Body weight Measured"
						}
					]
				},
				"subject": {
					"reference": "Patient/A2",
					"identifier": {
						"system": "http://hospital_abc/MRN",
						"value": "01374547123"
					}
				},
				"effectiveDateTime": "2020-01-05T00:00:00Z",
				"valueQuantity": {
					"value": 30.0,
					"unit": "kg",
					"system": "http://unitsofmeasure.org",
					"code": "kg"
				}
			},
			"request": {
				"method": "PUT",
				"url": "Observation/O2"
			}
		}
	]
}
