{
	"resourceType": "Bundle",
	"id": "3553f25b-6ef5-4cd2-bfa7-e25b8bf511a9",
	"meta": {
		"lastUpdated": "2016-10-06T13:21:21.231-04:00"
	},
	"type": "searchset",
	"total": 77,
	"link": [
		{
			"relation": "self",
			"url": "http://fhirtest.uhn.ca/baseDstu3/Patient/A161443/$everything?_count=1000&_format=json"
		},
		{
			"relation": "next",
			"url": "http://fhirtest.uhn.ca/baseDstu3?_getpages=7b76737c-b44d-4790-986c-67b8ac9d7ef8&_getpagesoffset=50&_count=50&_format=json&_pretty=true&_bundletype=searchset"
		}
	],
	"entry": [
		{
			"fullUrl": "http://fhirtest.uhn.ca/baseDstu3/Patient/A161443",
			"resource": {
				"resourceType": "Patient",
				"id": "A161443",
				"meta": {
					"versionId": "1",
					"lastUpdated": "2016-10-06T13:10:35.976-04:00"
				},
				"text": {
					"status": "generated",
					"div": "<div xmlns=\"http://www.w3.org/1999/xhtml\">Nevaeh King</div>"
				},
				"name": [
					{
						"use": "official",
						"text": "Nevaeh King",
						"family": [
							"King"
						],
						"given": [
							"Nevaeh"
						]
					}
				],
				"gender": "female",
				"birthDate": "1961-03-24"
			},
			"search": {
				"mode": "include"
			}
		},
		{
			"fullUrl": "http://fhirtest.uhn.ca/baseDstu3/Condition/A161446",
			"resource": {
				"resourceType": "Condition",
				"id": "A161446",
				"meta": {
					"versionId": "1",
					"lastUpdated": "2016-10-06T13:10:43.596-04:00"
				},
				"clinicalStatus": "active",
				"verificationStatus": "confirmed",
				"category": [{
					"coding": [
						{
							"system": "http://hl7.org/fhir/condition-category",
							"code": "diagnosis",
							"display": "diagnosis"
						},
						{
							"system": "http://snomed.info/sct",
							"code": "14657009",
							"display": "Diagnosis"
						}
					],
					"text": "Diagnosis"
				}],
				"severity": {
					"coding": [
						{
							"system": "http://snomed.info/ct",
							"code": "6736007",
							"display": "moderate"
						}
					],
					"text": "moderate"
				},
				"code": {
					"coding": [
						{
							"system": "http://snomed.info/ct",
							"code": "73211009",
							"display": "diabetes"
						}
					],
					"text": "diabetes"
				},
				"subject": {
					"reference": "Patient/A161443"
				},
				"onsetAge": {
					"value": 60,
					"system": "http://unitsofmeasure.org",
					"code": "a"
				}
			},
			"search": {
				"mode": "include"
			}
		},
		{
			"fullUrl": "http://fhirtest.uhn.ca/baseDstu3/Condition/A161447",
			"resource": {
				"resourceType": "Condition",
				"id": "A161447",
				"meta": {
					"versionId": "1",
					"lastUpdated": "2016-10-06T13:10:43.596-04:00"
				},
				"clinicalStatus": "active",
				"verificationStatus": "confirmed",
				"category": [{
					"coding": [
						{
							"system": "http://hl7.org/fhir/condition-category",
							"code": "diagnosis",
							"display": "diagnosis"
						},
						{
							"system": "http://snomed.info/sct",
							"code": "14657009",
							"display": "Diagnosis"
						}
					],
					"text": "Diagnosis"
				}],
				"severity": {
					"coding": [
						{
							"system": "http://snomed.info/ct",
							"code": "255604002",
							"display": "mild"
						}
					],
					"text": "Mild"
				},
				"code": {
					"coding": [
						{
							"system": "http://snomed.info/ct",
							"code": "38341003",
							"display": "hypertension"
						}
					],
					"text": "hypertension"
				},
				"subject": {
					"reference": "Patient/A161443"
				},
				"onsetAge": {
					"value": 68,
					"system": "http://unitsofmeasure.org",
					"code": "a"
				}
			},
			"search": {
				"mode": "include"
			}
		},
		{
			"fullUrl": "http://fhirtest.uhn.ca/baseDstu3/List/A161444",
			"resource": {
				"resourceType": "List",
				"id": "A161444",
				"meta": {
					"versionId": "1",
					"lastUpdated": "2016-10-06T13:10:43.596-04:00"
				},
				"status": "current",
				"mode": "snapshot",
				"title": "Problems List",
				"code": {
					"coding": [
						{
							"system": "http://hl7.org/fhir/list-example-use-codes",
							"code": "problems"
						}
					]
				},
				"subject": {
					"reference": "Patient/A161443"
				},
				"date": "2016-10-07T06:12:35+13:00",
				"entry": [
					{
						"date": "2016-10-07T06:12:35+13:00",
						"item": {
							"reference": "Condition/A161445"
						}
					},
					{
						"date": "2016-10-07T06:12:35+13:00",
						"item": {
							"reference": "Condition/A161446"
						}
					},
					{
						"date": "2016-10-07T06:12:35+13:00",
						"item": {
							"reference": "Condition/A161447"
						}
					},
					{
						"date": "2016-10-07T06:12:35+13:00",
						"item": {
							"reference": "Condition/A161448"
						}
					},
					{
						"date": "2016-10-07T06:12:35+13:00",
						"item": {
							"reference": "Condition/A161449"
						}
					},
					{
						"date": "2016-10-07T06:12:35+13:00",
						"item": {
							"reference": "Condition/A161450"
						}
					},
					{
						"date": "2016-10-07T06:12:35+13:00",
						"item": {
							"reference": "Condition/A161451"
						}
					},
					{
						"date": "2016-10-07T06:12:35+13:00",
						"item": {
							"reference": "Condition/A161452"
						}
					},
					{
						"date": "2016-10-07T06:12:35+13:00",
						"item": {
							"reference": "Condition/A161453"
						}
					},
					{
						"date": "2016-10-07T06:12:35+13:00",
						"item": {
							"reference": "Condition/A161454"
						}
					},
					{
						"date": "2016-10-07T06:12:35+13:00",
						"item": {
							"reference": "Condition/A161455"
						}
					}
				]
			},
			"search": {
				"mode": "match"
			}
		},
		{
			"fullUrl": "http://fhirtest.uhn.ca/baseDstu3/Condition/A161445",
			"resource": {
				"resourceType": "Condition",
				"id": "A161445",
				"meta": {
					"versionId": "1",
					"lastUpdated": "2016-10-06T13:10:43.596-04:00"
				},
				"clinicalStatus": "active",
				"verificationStatus": "confirmed",
				"category": [{
					"coding": [
						{
							"system": "http://hl7.org/fhir/condition-category",
							"code": "diagnosis",
							"display": "diagnosis"
						},
						{
							"system": "http://snomed.info/sct",
							"code": "14657009",
							"display": "Diagnosis"
						}
					],
					"text": "Diagnosis"
				}],
				"severity": {
					"coding": [
						{
							"system": "http://snomed.info/ct",
							"code": "371923033",
							"display": "mild to moderate"
						}
					],
					"text": "mild to moderate"
				},
				"code": {
					"coding": [
						{
							"system": "http://snomed.info/ct",
							"code": "195917001",
							"display": "asthma"
						}
					],
					"text": "asthma"
				},
				"subject": {
					"reference": "Patient/A161443"
				},
				"onsetAge": {
					"value": 14,
					"system": "http://unitsofmeasure.org",
					"code": "a"
				}
			},
			"search": {
				"mode": "include"
			}
		},
		{
			"fullUrl": "http://fhirtest.uhn.ca/baseDstu3/Condition/A161450",
			"resource": {
				"resourceType": "Condition",
				"id": "A161450",
				"meta": {
					"versionId": "1",
					"lastUpdated": "2016-10-06T13:10:43.596-04:00"
				},
				"clinicalStatus": "active",
				"verificationStatus": "confirmed",
				"category": [{
					"coding": [
						{
							"system": "http://hl7.org/fhir/condition-category",
							"code": "diagnosis",
							"display": "diagnosis"
						},
						{
							"system": "http://snomed.info/sct",
							"code": "14657009",
							"display": "Diagnosis"
						}
					],
					"text": "Diagnosis"
				}],
				"severity": {
					"coding": [
						{
							"system": "http://snomed.info/ct",
							"code": "6736007",
							"display": "moderate"
						}
					],
					"text": "Moderate"
				},
				"code": {
					"coding": [
						{
							"system": "http://snomed.info/ct",
							"code": "69896004",
							"display": "rheumatoid arthritis"
						}
					],
					"text": "rheumatoid arthritis - both hands"
				},
				"bodySite": [
					{
						"coding": [
							{
								"system": "http://snomed.info/ct",
								"code": "12861001",
								"display": "both hands"
							}
						],
						"text": "both hands"
					}
				],
				"subject": {
					"reference": "Patient/A161443"
				},
				"onsetAge": {
					"value": 72,
					"system": "http://unitsofmeasure.org",
					"code": "a"
				},
				"evidence": [
					{
						"code": [{
							"coding": [
								{
									"system": "http://snomed.info/ct",
									"code": "57676002",
									"display": "Painful Joint"
								}
							],
							"text": "Painful joint"
						}]
					}
				]
			},
			"search": {
				"mode": "include"
			}
		},
		{
			"fullUrl": "http://fhirtest.uhn.ca/baseDstu3/Condition/A161451",
			"resource": {
				"resourceType": "Condition",
				"id": "A161451",
				"meta": {
					"versionId": "1",
					"lastUpdated": "2016-10-06T13:10:43.596-04:00"
				},
				"clinicalStatus": "active",
				"verificationStatus": "confirmed",
				"category": [{
					"coding": [
						{
							"system": "http://hl7.org/fhir/condition-category",
							"code": "diagnosis",
							"display": "diagnosis"
						},
						{
							"system": "http://snomed.info/sct",
							"code": "14657009",
							"display": "Diagnosis"
						}
					],
					"text": "Diagnosis"
				}],
				"severity": {
					"coding": [
						{
							"system": "http://snomed.info/ct",
							"code": "371923033",
							"display": "mild to moderate"
						}
					],
					"text": "Diagnosis"
				},
				"code": {
					"coding": [
						{
							"system": "http://snomed.info/ct",
							"code": "69896004",
							"display": "rheumatoid arthritis"
						}
					],
					"text": "rheumatoid arthritis - left elbow"
				},
				"bodySite": [
					{
						"coding": [
							{
								"system": "http://snomed.info/ct",
								"code": "1927002",
								"display": "left elbow"
							}
						],
						"text": "left elbow"
					}
				],
				"subject": {
					"reference": "Patient/A161443"
				},
				"onsetAge": {
					"value": 74,
					"system": "http://unitsofmeasure.org",
					"code": "a"
				},
				"evidence": [
					{
						"code": [{
							"coding": [
								{
									"system": "http://snomed.info/ct",
									"code": "57676002",
									"display": "Painful Joint"
								}
							],
							"text": "Painful joint"
						}]
					}
				]
			},
			"search": {
				"mode": "include"
			}
		},
		{
			"fullUrl": "http://fhirtest.uhn.ca/baseDstu3/Condition/A161448",
			"resource": {
				"resourceType": "Condition",
				"id": "A161448",
				"meta": {
					"versionId": "1",
					"lastUpdated": "2016-10-06T13:10:43.596-04:00"
				},
				"clinicalStatus": "active",
				"verificationStatus": "confirmed",
				"category": [{
					"coding": [
						{
							"system": "http://hl7.org/fhir/condition-category",
							"code": "diagnosis",
							"display": "diagnosis"
						},
						{
							"system": "http://snomed.info/sct",
							"code": "14657009",
							"display": "Diagnosis"
						}
					],
					"text": "Diagnosis"
				}],
				"severity": {
					"coding": [
						{
							"system": "http://snomed.info/ct",
							"code": "6736007",
							"display": "moderate"
						}
					],
					"text": "Moderate"
				},
				"code": {
					"coding": [
						{
							"system": "http://snomed.info/ct",
							"code": "35489007",
							"display": "depression"
						}
					],
					"text": "depression"
				},
				"subject": {
					"reference": "Patient/A161443"
				},
				"onsetAge": {
					"value": 74,
					"system": "http://unitsofmeasure.org",
					"code": "a"
				}
			},
			"search": {
				"mode": "include"
			}
		},
		{
			"fullUrl": "http://fhirtest.uhn.ca/baseDstu3/Condition/A161449",
			"resource": {
				"resourceType": "Condition",
				"id": "A161449",
				"meta": {
					"versionId": "1",
					"lastUpdated": "2016-10-06T13:10:43.596-04:00"
				},
				"clinicalStatus": "active",
				"verificationStatus": "confirmed",
				"category": [{
					"coding": [
						{
							"system": "http://hl7.org/fhir/condition-category",
							"code": "diagnosis",
							"display": "diagnosis"
						},
						{
							"system": "http://snomed.info/sct",
							"code": "14657009",
							"display": "Diagnosis"
						}
					],
					"text": "Diagnosis"
				}],
				"severity": {
					"coding": [
						{
							"system": "http://snomed.info/ct",
							"code": "6736007",
							"display": "moderate"
						}
					],
					"text": "moderate"
				},
				"code": {
					"coding": [
						{
							"system": "http://snomed.info/ct",
							"code": "247389009",
							"display": "neuropathic pain"
						}
					],
					"text": "neuropathic pain"
				},
				"subject": {
					"reference": "Patient/A161443"
				},
				"onsetAge": {
					"value": 75,
					"system": "http://unitsofmeasure.org",
					"code": "a"
				}
			},
			"search": {
				"mode": "include"
			}
		},
		{
			"fullUrl": "http://fhirtest.uhn.ca/baseDstu3/Condition/A161454",
			"resource": {
				"resourceType": "Condition",
				"id": "A161454",
				"meta": {
					"versionId": "1",
					"lastUpdated": "2016-10-06T13:10:43.596-04:00"
				},
				"clinicalStatus": "active",
				"verificationStatus": "confirmed",
				"category": [{
					"coding": [
						{
							"system": "http://hl7.org/fhir/condition-category",
							"code": "diagnosis",
							"display": "diagnosis"
						},
						{
							"system": "http://snomed.info/sct",
							"code": "14657009",
							"display": "Diagnosis"
						}
					],
					"text": "Diagnosis"
				}],
				"severity": {
					"coding": [
						{
							"system": "http://snomed.info/ct",
							"code": "24484000",
							"display": "severe"
						}
					],
					"text": "severe"
				},
				"code": {
					"coding": [
						{
							"system": "http://snomed.info/ct",
							"code": "414941998",
							"display": "onychomycosis"
						}
					],
					"text": "onychomycosis"
				},
				"subject": {
					"reference": "Patient/A161443"
				},
				"onsetAge": {
					"value": 77,
					"system": "http://unitsofmeasure.org",
					"code": "a"
				}
			},
			"search": {
				"mode": "include"
			}
		},
		{
			"fullUrl": "http://fhirtest.uhn.ca/baseDstu3/Condition/A161455",
			"resource": {
				"resourceType": "Condition",
				"id": "A161455",
				"meta": {
					"versionId": "1",
					"lastUpdated": "2016-10-06T13:10:43.596-04:00"
				},
				"clinicalStatus": "active",
				"verificationStatus": "confirmed",
				"category": [{
					"coding": [
						{
							"system": "http://hl7.org/fhir/condition-category",
							"code": "diagnosis",
							"display": "diagnosis"
						},
						{
							"system": "http://snomed.info/sct",
							"code": "14657009",
							"display": "Diagnosis"
						}
					],
					"text": "Diagnosis"
				}],
				"severity": {
					"coding": [
						{
							"system": "http://snomed.info/ct",
							"code": "371923033",
							"display": "moderate"
						}
					],
					"text": "Moderate"
				},
				"code": {
					"coding": [
						{
							"system": "http://snomed.info/ct",
							"code": "194818000",
							"display": "angina"
						}
					],
					"text": "angina"
				},
				"subject": {
					"reference": "Patient/A161443"
				},
				"onsetAge": {
					"value": 76,
					"system": "http://unitsofmeasure.org",
					"code": "a"
				},
				"evidence": [
					{
						"code": [{
							"coding": [
								{
									"system": "http://snomed.info/ct",
									"code": "29857009",
									"display": "Chest Pain"
								}
							],
							"text": "Chest Pain"
						}]
					}
				]
			},
			"search": {
				"mode": "include"
			}
		},
		{
			"fullUrl": "http://fhirtest.uhn.ca/baseDstu3/Condition/A161452",
			"resource": {
				"resourceType": "Condition",
				"id": "A161452",
				"meta": {
					"versionId": "1",
					"lastUpdated": "2016-10-06T13:10:43.596-04:00"
				},
				"clinicalStatus": "active",
				"verificationStatus": "confirmed",
				"category": [{
					"coding": [
						{
							"system": "http://hl7.org/fhir/condition-category",
							"code": "diagnosis",
							"display": "diagnosis"
						},
						{
							"system": "http://snomed.info/sct",
							"code": "14657009",
							"display": "Diagnosis"
						}
					],
					"text": "Diagnosis"
				}],
				"severity": {
					"coding": [
						{
							"system": "http://snomed.info/ct",
							"code": "371923033",
							"display": "moderate"
						}
					],
					"text": "Moderate"
				},
				"code": {
					"coding": [
						{
							"system": "http://snomed.info/ct",
							"code": "235595009",
							"display": "GERD"
						}
					],
					"text": "GERD"
				},
				"subject": {
					"reference": "Patient/A161443"
				},
				"onsetAge": {
					"value": 66,
					"system": "http://unitsofmeasure.org",
					"code": "a"
				}
			},
			"search": {
				"mode": "include"
			}
		},
		{
			"fullUrl": "http://fhirtest.uhn.ca/baseDstu3/Condition/A161453",
			"resource": {
				"resourceType": "Condition",
				"id": "A161453",
				"meta": {
					"versionId": "1",
					"lastUpdated": "2016-10-06T13:10:43.596-04:00"
				},
				"clinicalStatus": "active",
				"verificationStatus": "confirmed",
				"category": [{
					"coding": [
						{
							"system": "http://hl7.org/fhir/condition-category",
							"code": "diagnosis",
							"display": "diagnosis"
						},
						{
							"system": "http://snomed.info/sct",
							"code": "14657009",
							"display": "Diagnosis"
						}
					],
					"text": "Diagnosis"
				}],
				"severity": {
					"coding": [
						{
							"system": "http://snomed.info/ct",
							"code": "6736007",
							"display": "moderate"
						}
					],
					"text": "Moderate"
				},
				"code": {
					"coding": [
						{
							"system": "http://snomed.info/ct",
							"code": "13644009",
							"display": "high cholesterol"
						}
					],
					"text": "high cholesterol"
				},
				"subject": {
					"reference": "Patient/A161443"
				},
				"onsetAge": {
					"value": 68,
					"system": "http://unitsofmeasure.org",
					"code": "a"
				}
			},
			"search": {
				"mode": "include"
			}
		},
		{
			"fullUrl": "http://fhirtest.uhn.ca/baseDstu3/Encounter/A161458",
			"resource": {
				"resourceType": "Encounter",
				"id": "A161458",
				"meta": {
					"versionId": "1",
					"lastUpdated": "2016-10-06T13:10:45.490-04:00"
				},
				"status": "finished",
				"type": [
					{
						"text": "OutPatient"
					}
				],
				"subject": {
					"reference": "Patient/A161443"
				},
				"participant": [
					{
						"individual": {
							"reference": "Practitioner/A45514"
						}
					}
				],
				"period": {
					"start": "2016-09-12T18:12:43.374Z"
				},
				"reason": [
					{
						"text": "headache"
					}
				]
			},
			"search": {
				"mode": "match"
			}
		},
		{
			"fullUrl": "http://fhirtest.uhn.ca/baseDstu3/Encounter/A161459",
			"resource": {
				"resourceType": "Encounter",
				"id": "A161459",
				"meta": {
					"versionId": "1",
					"lastUpdated": "2016-10-06T13:10:45.490-04:00"
				},
				"status": "finished",
				"type": [
					{
						"text": "OutPatient"
					}
				],
				"subject": {
					"reference": "Patient/A161443"
				},
				"participant": [
					{
						"individual": {
							"reference": "Practitioner/A45515"
						}
					}
				],
				"period": {
					"start": "2016-08-29T18:12:43.375Z"
				},
				"reason": [
					{
						"text": "sore throat"
					}
				],
				"diagnosis": [
					{
						"condition": {
							"reference": "Condition/A161450"
						}
					},
					{
						"condition": {
							"reference": "Condition/A161448"
						}
					}
				]
			},
			"search": {
				"mode": "match"
			}
		},
		{
			"fullUrl": "http://fhirtest.uhn.ca/baseDstu3/Encounter/A161456",
			"resource": {
				"resourceType": "Encounter",
				"id": "A161456",
				"meta": {
					"versionId": "1",
					"lastUpdated": "2016-10-06T13:10:45.490-04:00"
				},
				"status": "finished",
				"type": [
					{
						"text": "GP"
					}
				],
				"subject": {
					"reference": "Patient/A161443"
				},
				"participant": [
					{
						"individual": {
							"reference": "Practitioner/A45515"
						}
					}
				],
				"period": {
					"start": "2016-08-18T18:12:43.372Z"
				},
				"reason": [
					{
						"text": "headache"
					}
				],
				"diagnosis": [
					{
						"condition": {
						"reference": "Condition/A161452"
						}
					}
				]
			},
			"search": {
				"mode": "match"
			}
		},
		{
			"fullUrl": "http://fhirtest.uhn.ca/baseDstu3/Encounter/A161457",
			"resource": {
				"resourceType": "Encounter",
				"id": "A161457",
				"meta": {
					"versionId": "1",
					"lastUpdated": "2016-10-06T13:10:45.490-04:00"
				},
				"status": "finished",
				"type": [
					{
						"text": "OutPatient"
					}
				],
				"subject": {
					"reference": "Patient/A161443"
				},
				"participant": [
					{
						"individual": {
							"reference": "Practitioner/A45515"
						}
					}
				],
				"period": {
					"start": "2016-08-24T18:12:43.373Z"
				},
				"reason": [
					{
						"text": "sore throat"
					}
				],
				"diagnosis": [
					{
						"condition": {
							"reference": "Condition/A161455"
						}
					}
				]
			},
			"search": {
				"mode": "match"
			}
		},
		{
			"fullUrl": "http://fhirtest.uhn.ca/baseDstu3/Encounter/A161462",
			"resource": {
				"resourceType": "Encounter",
				"id": "A161462",
				"meta": {
					"versionId": "1",
					"lastUpdated": "2016-10-06T13:10:45.490-04:00"
				},
				"status": "finished",
				"type": [
					{
						"text": "GP"
					}
				],
				"subject": {
					"reference": "Patient/A161443"
				},
				"participant": [
					{
						"individual": {
							"reference": "Practitioner/A45514"
						}
					}
				],
				"period": {
					"start": "2016-08-08T18:12:43.377Z"
				},
				"reason": [
					{
						"text": "sore throat"
					}
				],
				"diagnosis": [
					{
						"condition": {
							"reference": "Condition/A161455"
						}
					}
				]
			},
			"search": {
				"mode": "match"
			}
		},
		{
			"fullUrl": "http://fhirtest.uhn.ca/baseDstu3/Encounter/A161463",
			"resource": {
				"resourceType": "Encounter",
				"id": "A161463",
				"meta": {
					"versionId": "1",
					"lastUpdated": "2016-10-06T13:10:45.490-04:00"
				},
				"status": "finished",
				"type": [
					{
						"text": "GP"
					}
				],
				"subject": {
					"reference": "Patient/A161443"
				},
				"participant": [
					{
						"individual": {
							"reference": "Practitioner/A45514"
						}
					}
				],
				"period": {
					"start": "2016-08-12T18:12:43.378Z"
				},
				"reason": [
					{
						"text": "sore throat"
					}
				],
				"diagnosis": [
					{
						"condition": {
							"reference": "Condition/A161448"
						}
					},
					{
						"condition": {
							"reference": "Condition/A161450"
						}
					}
				]
			},
			"search": {
				"mode": "match"
			}
		},
		{
			"fullUrl": "http://fhirtest.uhn.ca/baseDstu3/Encounter/A161460",
			"resource": {
				"resourceType": "Encounter",
				"id": "A161460",
				"meta": {
					"versionId": "1",
					"lastUpdated": "2016-10-06T13:10:45.490-04:00"
				},
				"status": "finished",
				"type": [
					{
						"text": "OutPatient"
					}
				],
				"subject": {
					"reference": "Patient/A161443"
				},
				"participant": [
					{
						"individual": {
							"reference": "Practitioner/A45514"
						}
					}
				],
				"period": {
					"start": "2016-09-02T18:12:43.375Z"
				},
				"reason": [
					{
						"text": "headache"
					}
				]
			},
			"search": {
				"mode": "match"
			}
		},
		{
			"fullUrl": "http://fhirtest.uhn.ca/baseDstu3/Encounter/A161461",
			"resource": {
				"resourceType": "Encounter",
				"id": "A161461",
				"meta": {
					"versionId": "1",
					"lastUpdated": "2016-10-06T13:10:45.490-04:00"
				},
				"status": "finished",
				"type": [
					{
						"text": "OutPatient"
					}
				],
				"subject": {
					"reference": "Patient/A161443"
				},
				"participant": [
					{
						"individual": {
							"reference": "Practitioner/A45515"
						}
					}
				],
				"period": {
					"start": "2016-08-28T18:12:43.376Z"
				},
				"reason": [
					{
						"text": "headache"
					}
				],
				"diagnosis": [
					{
						"condition": {
							"reference": "Condition/A161453"
						}
					},
					{
						"condition": {
						"reference": "Condition/A161445"
						}
					}
				]
			},
			"search": {
				"mode": "match"
			}
		},
		{
			"fullUrl": "http://fhirtest.uhn.ca/baseDstu3/Appointment/A161466",
			"resource": {
				"resourceType": "Appointment",
				"id": "A161466",
				"meta": {
					"versionId": "1",
					"lastUpdated": "2016-10-06T13:10:47.130-04:00"
				},
				"text": {
					"status": "generated",
					"div": "<div xmlns=\"http://www.w3.org/1999/xhtml\"><div>Investigate Angina</div><div>Clarence cardiology clinic</div></div>"
				},
				"status": "pending",
				"description": "Investigate Angina",
				"start": "2016-10-11T06:12:45+13:00",
				"end": "2016-10-11T06:27:45+13:00",
				"minutesDuration": 15,
				"participant": [
					{
						"actor": {
							"display": "Clarence cardiology clinic"
						},
						"status": "accepted"
					},
					{
						"actor": {
							"reference": "Patient/A161443"
						},
						"status": "accepted"
					}
				]
			},
			"search": {
				"mode": "match"
			}
		},
		{
			"fullUrl": "http://fhirtest.uhn.ca/baseDstu3/Appointment/A161467",
			"resource": {
				"resourceType": "Appointment",
				"id": "A161467",
				"meta": {
					"versionId": "1",
					"lastUpdated": "2016-10-06T13:10:47.130-04:00"
				},
				"text": {
					"status": "generated",
					"div": "<div xmlns=\"http://www.w3.org/1999/xhtml\"><div>Routine checkup</div><div>Dr Dave</div></div>"
				},
				"status": "pending",
				"description": "Routine checkup",
				"start": "2016-10-14T06:12:45+13:00",
				"end": "2016-10-14T06:27:45+13:00",
				"minutesDuration": 15,
				"participant": [
					{
						"actor": {
							"display": "Dr Dave"
						},
						"status": "accepted"
					},
					{
						"actor": {
							"reference": "Patient/A161443"
						},
						"status": "accepted"
					}
				]
			},
			"search": {
				"mode": "match"
			}
		},
		{
			"fullUrl": "http://fhirtest.uhn.ca/baseDstu3/Encounter/A161464",
			"resource": {
				"resourceType": "Encounter",
				"id": "A161464",
				"meta": {
					"versionId": "1",
					"lastUpdated": "2016-10-06T13:10:45.490-04:00"
				},
				"status": "finished",
				"type": [
					{
						"text": "OutPatient"
					}
				],
				"subject": {
					"reference": "Patient/A161443"
				},
				"participant": [
					{
						"individual": {
							"reference": "Practitioner/A45514"
						}
					}
				],
				"period": {
					"start": "2016-09-02T18:12:43.379Z"
				},
				"reason": [
					{
						"text": "sore throat"
					}
				],
				"diagnosis": [
					{
						"condition": {
							"reference": "Condition/A161450"
						}
					},
					{
						"condition": {
						"reference": "Condition/A161451"
						}
					}
				]
			},
			"search": {
				"mode": "match"
			}
		},
		{
			"fullUrl": "http://fhirtest.uhn.ca/baseDstu3/Encounter/A161465",
			"resource": {
				"resourceType": "Encounter",
				"id": "A161465",
				"meta": {
					"versionId": "1",
					"lastUpdated": "2016-10-06T13:10:45.490-04:00"
				},
				"status": "finished",
				"type": [
					{
						"text": "GP"
					}
				],
				"subject": {
					"reference": "Patient/A161443"
				},
				"participant": [
					{
						"individual": {
							"reference": "Practitioner/A45515"
						}
					}
				],
				"period": {
					"start": "2016-09-01T18:12:43.380Z"
				},
				"reason": [
					{
						"text": "sore throat"
					}
				],
				"diagnosis": [
					{
						"condition": {
							"reference": "Condition/A161455"
						}
					}
				]
			},
			"search": {
				"mode": "match"
			}
		},
		{
			"fullUrl": "http://fhirtest.uhn.ca/baseDstu3/AllergyIntolerance/A161470",
			"resource": {
				"resourceType": "AllergyIntolerance",
				"id": "A161470",
				"meta": {
					"versionId": "1",
					"lastUpdated": "2016-10-06T13:10:47.440-04:00"
				},
				"clinicalStatus": "active",
				"type": "allergy",
				"criticality": "low",
				"code": {
					"coding": [
						{
							"system": "http://snomed.info/ct",
							"code": "85990009",
							"display": "codeine"
						}
					],
					"text": "codeine"
				},
				"patient": {
					"reference": "Patient/A161443"
				},
				"asserter": {
					"reference": "Patient/A161443"
				},
				"reaction": [
					{
						"substance": {
							"coding": [
								{
									"system": "http://snomed.info/ct",
									"code": "85990009",
									"display": "codeine"
								}
							],
							"text": "codeine"
						},
						"manifestation": [
							{
								"coding": [
									{
										"system": "http://snomed.info/ct",
										"code": "422587007",
										"display": "nausea"
									}
								],
								"text": "nausea"
							}
						],
						"severity": "mild",
						"exposureRoute": {
							"coding": [
								{
									"system": "http://snomed.info/ct",
									"code": "26643006",
									"display": "oral"
								}
							],
							"text": "Oral Route"
						}
					},
					{
						"substance": {
							"coding": [
								{
									"system": "http://snomed.info/ct",
									"code": "85990009",
									"display": "codeine"
								}
							],
							"text": "codeine"
						},
						"manifestation": [
							{
								"coding": [
									{
										"system": "http://snomed.info/ct",
										"code": "422587007",
										"display": "nausea"
									}
								],
								"text": "nausea"
							}
						],
						"severity": "mild",
						"exposureRoute": {
							"coding": [
								{
									"system": "http://snomed.info/ct",
									"code": "26643006",
									"display": "oral"
								}
							],
							"text": "Oral Route"
						}
					}
				]
			},
			"search": {
				"mode": "include"
			}
		},
		{
			"fullUrl": "http://fhirtest.uhn.ca/baseDstu3/AllergyIntolerance/A161471",
			"resource": {
				"resourceType": "AllergyIntolerance",
				"id": "A161471",
				"meta": {
					"versionId": "1",
					"lastUpdated": "2016-10-06T13:10:47.440-04:00"
				},
				"clinicalStatus": "active",
				"type": "allergy",
				"criticality": "low",
				"code": {
					"coding": [
						{
							"system": "http://snomed.info/ct",
							"code": "111088007",
							"display": "latex"
						}
					],
					"text": "latex"
				},
				"patient": {
					"reference": "Patient/A161443"
				},
				"asserter": {
					"reference": "Patient/A161443"
				},
				"reaction": [
					{
						"substance": {
							"coding": [
								{
									"system": "http://snomed.info/ct",
									"code": "111088007",
									"display": "latex"
								}
							],
							"text": "latex"
						},
						"manifestation": [
							{
								"coding": [
									{
										"system": "http://snomed.info/ct",
										"code": "422587007",
										"display": "rash"
									}
								],
								"text": "rash"
							}
						],
						"severity": "moderate",
						"exposureRoute": {
							"coding": [
								{
									"system": "http://snomed.info/ct",
									"code": "26643006",
									"display": "oral"
								}
							],
							"text": "Oral Route"
						}
					}
				]
			},
			"search": {
				"mode": "include"
			}
		},
		{
			"fullUrl": "http://fhirtest.uhn.ca/baseDstu3/List/A161500",
			"resource": {
				"resourceType": "List",
				"id": "A161500",
				"meta": {
					"versionId": "1",
					"lastUpdated": "2016-10-06T13:10:47.859-04:00"
				},
				"status": "current",
				"mode": "snapshot",
				"title": "Medication List",
				"code": {
					"coding": [
						{
							"system": "http://hl7.org/fhir/list-example-use-codes",
							"code": "medications"
						}
					]
				},
				"subject": {
					"reference": "Patient/A161443"
				},
				"date": "2016-10-07T06:12:45+13:00",
				"entry": [
					{
						"date": "2016-10-07T06:12:45+13:00",
						"item": {
							"reference": "AllergyIntolerance/A161471"
						}
					}
				]
			},
			"search": {
				"mode": "match"
			}
		},
		{
			"fullUrl": "http://fhirtest.uhn.ca/baseDstu3/List/A161468",
			"resource": {
				"resourceType": "List",
				"id": "A161468",
				"meta": {
					"versionId": "1",
					"lastUpdated": "2016-10-06T13:10:47.440-04:00"
				},
				"status": "current",
				"mode": "snapshot",
				"title": "Allergies List",
				"code": {
					"coding": [
						{
							"system": "http://hl7.org/fhir/list-example-use-codes",
							"code": "allergies"
						}
					]
				},
				"subject": {
					"reference": "Patient/A161443"
				},
				"date": "2016-10-07T06:12:45+13:00",
				"entry": [
					{
						"date": "2016-10-07T06:12:45+13:00",
						"item": {
							"reference": "AllergyIntolerance/A161469"
						}
					},
					{
						"date": "2016-10-07T06:12:45+13:00",
						"item": {
							"reference": "AllergyIntolerance/A161470"
						}
					},
					{
						"date": "2016-10-07T06:12:45+13:00",
						"item": {
							"reference": "AllergyIntolerance/A161471"
						}
					},
					{
						"date": "2016-10-07T06:12:45+13:00",
						"item": {
							"reference": "AllergyIntolerance/A161472"
						}
					},
					{
						"date": "2016-10-07T06:12:45+13:00",
						"item": {
							"reference": "AllergyIntolerance/A161473"
						}
					},
					{
						"date": "2016-10-07T06:12:45+13:00",
						"item": {
							"reference": "AllergyIntolerance/A161475"
						}
					}
				]
			},
			"search": {
				"mode": "match"
			}
		},
		{
			"fullUrl": "http://fhirtest.uhn.ca/baseDstu3/AllergyIntolerance/A161469",
			"resource": {
				"resourceType": "AllergyIntolerance",
				"id": "A161469",
				"meta": {
					"versionId": "1",
					"lastUpdated": "2016-10-06T13:10:47.440-04:00"
				},
				"clinicalStatus": "active",
				"type": "allergy",
				"criticality": "low",
				"code": {
					"coding": [
						{
							"system": "http://snomed.info/ct",
							"code": "108575001",
							"display": "lisinopril"
						}
					],
					"text": "lisinopril"
				},
				"patient": {
					"reference": "Patient/A161443"
				},
				"asserter": {
					"reference": "Patient/A161443"
				},
				"reaction": [
					{
						"substance": {
							"coding": [
								{
									"system": "http://snomed.info/ct",
									"code": "108575001",
									"display": "lisinopril"
								}
							],
							"text": "lisinopril"
						},
						"manifestation": [
							{
								"coding": [
									{
										"system": "http://snomed.info/ct",
										"code": "49727002",
										"display": "cough"
									}
								],
								"text": "Cough"
							}
						],
						"severity": "mild",
						"exposureRoute": {
							"coding": [
								{
									"system": "http://snomed.info/ct",
									"code": "26643006",
									"display": "oral"
								}
							],
							"text": "Oral Route"
						}
					}
				]
			},
			"search": {
				"mode": "include"
			}
		},
		{
			"fullUrl": "http://fhirtest.uhn.ca/baseDstu3/Observation/A161474",
			"resource": {
				"resourceType": "Observation",
				"id": "A161474",
				"meta": {
					"versionId": "1",
					"lastUpdated": "2016-10-06T13:10:47.453-04:00"
				},
				"text": {
					"status": "generated",
					"div": "<div xmlns=\"http://www.w3.org/1999/xhtml\">Body Temperature, 36.3 C</div>"
				},
				"status": "final",
				"code": {
					"coding": [
						{
							"system": "http://loinc.org",
							"code": "8310-5"
						}
					],
					"text": "Body Temperature"
				},
				"subject": {
					"reference": "Patient/A161443"
				},
				"effectiveDateTime": "2016-10-07T06:12:45+13:00",
				"valueQuantity": {
					"value": 36.3,
					"unit": "C"
				}
			},
			"search": {
				"mode": "match"
			}
		},
		{
			"fullUrl": "http://fhirtest.uhn.ca/baseDstu3/AllergyIntolerance/A161475",
			"resource": {
				"resourceType": "AllergyIntolerance",
				"id": "A161475",
				"meta": {
					"versionId": "1",
					"lastUpdated": "2016-10-06T13:10:47.440-04:00"
				},
				"clinicalStatus": "active",
				"type": "allergy",
				"criticality": "low",
				"code": {
					"coding": [
						{
							"system": "http://snomed.info/ct",
							"code": "96087006",
							"display": "levofloxacin"
						}
					],
					"text": "levofloxacin"
				},
				"patient": {
					"reference": "Patient/A161443"
				},
				"asserter": {
					"reference": "Patient/A161443"
				},
				"reaction": [
					{
						"substance": {
							"coding": [
								{
									"system": "http://snomed.info/ct",
									"code": "96087006",
									"display": "levofloxacin"
								}
							],
							"text": "levofloxacin"
						},
						"manifestation": [
							{
								"coding": [
									{
										"system": "http://snomed.info/ct",
										"code": "422587007",
										"display": "rash"
									}
								],
								"text": "rash"
							}
						],
						"severity": "moderate",
						"exposureRoute": {
							"coding": [
								{
									"system": "http://snomed.info/ct",
									"code": "26643006",
									"display": "oral"
								}
							],
							"text": "Oral Route"
						}
					}
				]
			},
			"search": {
				"mode": "include"
			}
		},
		{
			"fullUrl": "http://fhirtest.uhn.ca/baseDstu3/AllergyIntolerance/A161472",
			"resource": {
				"resourceType": "AllergyIntolerance",
				"id": "A161472",
				"meta": {
					"versionId": "1",
					"lastUpdated": "2016-10-06T13:10:47.440-04:00"
				},
				"clinicalStatus": "active",
				"type": "allergy",
				"criticality": "low",
				"code": {
					"coding": [
						{
							"system": "http://snomed.info/ct",
							"code": "387406002",
							"display": "sulphonamide"
						}
					],
					"text": "sulphonamide"
				},
				"patient": {
					"reference": "Patient/A161443"
				},
				"asserter": {
					"reference": "Patient/A161443"
				},
				"reaction": [
					{
						"substance": {
							"coding": [
								{
									"system": "http://snomed.info/ct",
									"code": "387406002",
									"display": "sulphonamide"
								}
							],
							"text": "sulphonamide"
						},
						"manifestation": [
							{
								"coding": [
									{
										"system": "http://snomed.info/ct",
										"code": "73442001",
										"display": "Stevens-Johnson Syndrome"
									}
								],
								"text": "Stevens-Johnson Syndrome"
							}
						],
						"severity": "moderate",
						"exposureRoute": {
							"coding": [
								{
									"system": "http://snomed.info/ct",
									"code": "26643006",
									"display": "oral"
								}
							],
							"text": "Oral Route"
						}
					},
					{
						"substance": {
							"coding": [
								{
									"system": "http://snomed.info/ct",
									"code": "387406002",
									"display": "sulphonamide"
								}
							],
							"text": "sulphonamide"
						},
						"manifestation": [
							{
								"coding": [
									{
										"system": "http://snomed.info/ct",
										"code": "73442001",
										"display": "Stevens-Johnson Syndrome"
									}
								],
								"text": "Stevens-Johnson Syndrome"
							}
						],
						"severity": "moderate",
						"exposureRoute": {
							"coding": [
								{
									"system": "http://snomed.info/ct",
									"code": "26643006",
									"display": "oral"
								}
							],
							"text": "Oral Route"
						}
					}
				]
			},
			"search": {
				"mode": "include"
			}
		},
		{
			"fullUrl": "http://fhirtest.uhn.ca/baseDstu3/AllergyIntolerance/A161473",
			"resource": {
				"resourceType": "AllergyIntolerance",
				"id": "A161473",
				"meta": {
					"versionId": "1",
					"lastUpdated": "2016-10-06T13:10:47.440-04:00"
				},
				"clinicalStatus": "active",
				"type": "allergy",
				"criticality": "low",
				"code": {
					"coding": [
						{
							"system": "http://snomed.info/ct",
							"code": "256349002",
							"display": "peanuts"
						}
					],
					"text": "peanuts"
				},
				"patient": {
					"reference": "Patient/A161443"
				},
				"asserter": {
					"reference": "Patient/A161443"
				},
				"reaction": [
					{
						"substance": {
							"coding": [
								{
									"system": "http://snomed.info/ct",
									"code": "256349002",
									"display": "peanuts"
								}
							],
							"text": "peanuts"
						},
						"manifestation": [
							{
								"coding": [
									{
										"system": "http://snomed.info/ct",
										"code": "422587007",
										"display": "rash"
									}
								],
								"text": "rash"
							}
						],
						"severity": "severe",
						"exposureRoute": {
							"coding": [
								{
									"system": "http://snomed.info/ct",
									"code": "26643006",
									"display": "oral"
								}
							],
							"text": "Oral Route"
						}
					}
				]
			},
			"search": {
				"mode": "include"
			}
		},
		{
			"fullUrl": "http://fhirtest.uhn.ca/baseDstu3/Observation/A161478",
			"resource": {
				"resourceType": "Observation",
				"id": "A161478",
				"meta": {
					"versionId": "1",
					"lastUpdated": "2016-10-06T13:10:47.453-04:00"
				},
				"text": {
					"status": "generated",
					"div": "<div xmlns=\"http://www.w3.org/1999/xhtml\">Height, 90 cm</div>"
				},
				"status": "final",
				"code": {
					"coding": [
						{
							"system": "http://loinc.org",
							"code": "8302-2"
						}
					],
					"text": "Height"
				},
				"subject": {
					"reference": "Patient/A161443"
				},
				"effectiveDateTime": "2016-10-07T06:12:45+13:00",
				"valueQuantity": {
					"value": 90,
					"unit": "cm"
				}
			},
			"search": {
				"mode": "match"
			}
		},
		{
			"fullUrl": "http://fhirtest.uhn.ca/baseDstu3/Observation/A161479",
			"resource": {
				"resourceType": "Observation",
				"id": "A161479",
				"meta": {
					"versionId": "1",
					"lastUpdated": "2016-10-06T13:10:47.453-04:00"
				},
				"text": {
					"status": "generated",
					"div": "<div xmlns=\"http://www.w3.org/1999/xhtml\">Weight, 74.6 Kg</div>"
				},
				"status": "final",
				"code": {
					"coding": [
						{
							"system": "http://loinc.org",
							"code": "3141-9"
						}
					],
					"text": "Weight"
				},
				"subject": {
					"reference": "Patient/A161443"
				},
				"effectiveDateTime": "2016-10-07T06:12:45+13:00",
				"valueQuantity": {
					"value": 74.6,
					"unit": "Kg"
				}
			},
			"search": {
				"mode": "match"
			}
		},
		{
			"fullUrl": "http://fhirtest.uhn.ca/baseDstu3/Observation/A161476",
			"resource": {
				"resourceType": "Observation",
				"id": "A161476",
				"meta": {
					"versionId": "1",
					"lastUpdated": "2016-10-06T13:10:47.453-04:00"
				},
				"text": {
					"status": "generated",
					"div": "<div xmlns=\"http://www.w3.org/1999/xhtml\">Heart Rate, 72 bpm</div>"
				},
				"status": "final",
				"code": {
					"coding": [
						{
							"system": "http://loinc.org",
							"code": "8867-4"
						}
					],
					"text": "Heart Rate"
				},
				"subject": {
					"reference": "Patient/A161443"
				},
				"effectiveDateTime": "2016-10-07T06:12:45+13:00",
				"valueQuantity": {
					"value": 72,
					"unit": "bpm"
				}
			},
			"search": {
				"mode": "match"
			}
		},
		{
			"fullUrl": "http://fhirtest.uhn.ca/baseDstu3/Observation/A161477",
			"resource": {
				"resourceType": "Observation",
				"id": "A161477",
				"meta": {
					"versionId": "1",
					"lastUpdated": "2016-10-06T13:10:47.453-04:00"
				},
				"text": {
					"status": "generated",
					"div": "<div xmlns=\"http://www.w3.org/1999/xhtml\">Respiratory Rate, 30 resp/min</div>"
				},
				"status": "final",
				"code": {
					"coding": [
						{
							"system": "http://loinc.org",
							"code": "9279-1"
						}
					],
					"text": "Respiratory Rate"
				},
				"subject": {
					"reference": "Patient/A161443"
				},
				"effectiveDateTime": "2016-10-07T06:12:45+13:00",
				"valueQuantity": {
					"value": 30,
					"unit": "resp/min"
				}
			},
			"search": {
				"mode": "match"
			}
		},
		{
			"fullUrl": "http://fhirtest.uhn.ca/baseDstu3/Observation/A161482",
			"resource": {
				"resourceType": "Observation",
				"id": "A161482",
				"meta": {
					"versionId": "1",
					"lastUpdated": "2016-10-06T13:10:47.453-04:00"
				},
				"text": {
					"status": "generated",
					"div": "<div xmlns=\"http://www.w3.org/1999/xhtml\">Respiratory Rate, 32 resp/min</div>"
				},
				"status": "final",
				"code": {
					"coding": [
						{
							"system": "http://loinc.org",
							"code": "9279-1"
						}
					],
					"text": "Respiratory Rate"
				},
				"subject": {
					"reference": "Patient/A161443"
				},
				"effectiveDateTime": "2016-09-30T06:12:45+13:00",
				"valueQuantity": {
					"value": 32,
					"unit": "resp/min"
				}
			},
			"search": {
				"mode": "match"
			}
		},
		{
			"fullUrl": "http://fhirtest.uhn.ca/baseDstu3/Observation/A161483",
			"resource": {
				"resourceType": "Observation",
				"id": "A161483",
				"meta": {
					"versionId": "1",
					"lastUpdated": "2016-10-06T13:10:47.453-04:00"
				},
				"text": {
					"status": "generated",
					"div": "<div xmlns=\"http://www.w3.org/1999/xhtml\">Height, 90 cm</div>"
				},
				"status": "final",
				"code": {
					"coding": [
						{
							"system": "http://loinc.org",
							"code": "8302-2"
						}
					],
					"text": "Height"
				},
				"subject": {
					"reference": "Patient/A161443"
				},
				"effectiveDateTime": "2016-09-30T06:12:45+13:00",
				"valueQuantity": {
					"value": 90,
					"unit": "cm"
				}
			},
			"search": {
				"mode": "match"
			}
		},
		{
			"fullUrl": "http://fhirtest.uhn.ca/baseDstu3/Observation/A161480",
			"resource": {
				"resourceType": "Observation",
				"id": "A161480",
				"meta": {
					"versionId": "1",
					"lastUpdated": "2016-10-06T13:10:47.453-04:00"
				},
				"text": {
					"status": "generated",
					"div": "<div xmlns=\"http://www.w3.org/1999/xhtml\">Body Temperature, 36.1 C</div>"
				},
				"status": "final",
				"code": {
					"coding": [
						{
							"system": "http://loinc.org",
							"code": "8310-5"
						}
					],
					"text": "Body Temperature"
				},
				"subject": {
					"reference": "Patient/A161443"
				},
				"effectiveDateTime": "2016-09-30T06:12:45+13:00",
				"valueQuantity": {
					"value": 36.1,
					"unit": "C"
				}
			},
			"search": {
				"mode": "match"
			}
		},
		{
			"fullUrl": "http://fhirtest.uhn.ca/baseDstu3/Observation/A161481",
			"resource": {
				"resourceType": "Observation",
				"id": "A161481",
				"meta": {
					"versionId": "1",
					"lastUpdated": "2016-10-06T13:10:47.453-04:00"
				},
				"text": {
					"status": "generated",
					"div": "<div xmlns=\"http://www.w3.org/1999/xhtml\">Heart Rate, 88 bpm</div>"
				},
				"status": "final",
				"code": {
					"coding": [
						{
							"system": "http://loinc.org",
							"code": "8867-4"
						}
					],
					"text": "Heart Rate"
				},
				"subject": {
					"reference": "Patient/A161443"
				},
				"effectiveDateTime": "2016-09-30T06:12:45+13:00",
				"valueQuantity": {
					"value": 88,
					"unit": "bpm"
				}
			},
			"search": {
				"mode": "match"
			}
		},
		{
			"fullUrl": "http://fhirtest.uhn.ca/baseDstu3/Observation/A161486",
			"resource": {
				"resourceType": "Observation",
				"id": "A161486",
				"meta": {
					"versionId": "1",
					"lastUpdated": "2016-10-06T13:10:47.453-04:00"
				},
				"text": {
					"status": "generated",
					"div": "<div xmlns=\"http://www.w3.org/1999/xhtml\">Heart Rate, 86 bpm</div>"
				},
				"status": "final",
				"code": {
					"coding": [
						{
							"system": "http://loinc.org",
							"code": "8867-4"
						}
					],
					"text": "Heart Rate"
				},
				"subject": {
					"reference": "Patient/A161443"
				},
				"effectiveDateTime": "2016-09-23T06:12:45+12:00",
				"valueQuantity": {
					"value": 86,
					"unit": "bpm"
				}
			},
			"search": {
				"mode": "match"
			}
		},
		{
			"fullUrl": "http://fhirtest.uhn.ca/baseDstu3/Observation/A161487",
			"resource": {
				"resourceType": "Observation",
				"id": "A161487",
				"meta": {
					"versionId": "1",
					"lastUpdated": "2016-10-06T13:10:47.453-04:00"
				},
				"text": {
					"status": "generated",
					"div": "<div xmlns=\"http://www.w3.org/1999/xhtml\">Respiratory Rate, 33 resp/min</div>"
				},
				"status": "final",
				"code": {
					"coding": [
						{
							"system": "http://loinc.org",
							"code": "9279-1"
						}
					],
					"text": "Respiratory Rate"
				},
				"subject": {
					"reference": "Patient/A161443"
				},
				"effectiveDateTime": "2016-09-23T06:12:45+12:00",
				"valueQuantity": {
					"value": 33,
					"unit": "resp/min"
				}
			},
			"search": {
				"mode": "match"
			}
		},
		{
			"fullUrl": "http://fhirtest.uhn.ca/baseDstu3/Observation/A161484",
			"resource": {
				"resourceType": "Observation",
				"id": "A161484",
				"meta": {
					"versionId": "1",
					"lastUpdated": "2016-10-06T13:10:47.453-04:00"
				},
				"text": {
					"status": "generated",
					"div": "<div xmlns=\"http://www.w3.org/1999/xhtml\">Weight, 77.9 Kg</div>"
				},
				"status": "final",
				"code": {
					"coding": [
						{
							"system": "http://loinc.org",
							"code": "3141-9"
						}
					],
					"text": "Weight"
				},
				"subject": {
					"reference": "Patient/A161443"
				},
				"effectiveDateTime": "2016-09-30T06:12:45+13:00",
				"valueQuantity": {
					"value": 77.9,
					"unit": "Kg"
				}
			},
			"search": {
				"mode": "match"
			}
		},
		{
			"fullUrl": "http://fhirtest.uhn.ca/baseDstu3/Observation/A161485",
			"resource": {
				"resourceType": "Observation",
				"id": "A161485",
				"meta": {
					"versionId": "1",
					"lastUpdated": "2016-10-06T13:10:47.453-04:00"
				},
				"text": {
					"status": "generated",
					"div": "<div xmlns=\"http://www.w3.org/1999/xhtml\">Body Temperature, 36.9 C</div>"
				},
				"status": "final",
				"code": {
					"coding": [
						{
							"system": "http://loinc.org",
							"code": "8310-5"
						}
					],
					"text": "Body Temperature"
				},
				"subject": {
					"reference": "Patient/A161443"
				},
				"effectiveDateTime": "2016-09-23T06:12:45+12:00",
				"valueQuantity": {
					"value": 36.9,
					"unit": "C"
				}
			},
			"search": {
				"mode": "match"
			}
		},
		{
			"fullUrl": "http://fhirtest.uhn.ca/baseDstu3/Observation/A161490",
			"resource": {
				"resourceType": "Observation",
				"id": "A161490",
				"meta": {
					"versionId": "1",
					"lastUpdated": "2016-10-06T13:10:47.453-04:00"
				},
				"text": {
					"status": "generated",
					"div": "<div xmlns=\"http://www.w3.org/1999/xhtml\">Body Temperature, 37 C</div>"
				},
				"status": "final",
				"code": {
					"coding": [
						{
							"system": "http://loinc.org",
							"code": "8310-5"
						}
					],
					"text": "Body Temperature"
				},
				"subject": {
					"reference": "Patient/A161443"
				},
				"effectiveDateTime": "2016-09-16T06:12:45+12:00",
				"valueQuantity": {
					"value": 37,
					"unit": "C"
				}
			},
			"search": {
				"mode": "match"
			}
		},
		{
			"fullUrl": "http://fhirtest.uhn.ca/baseDstu3/Observation/A161491",
			"resource": {
				"resourceType": "Observation",
				"id": "A161491",
				"meta": {
					"versionId": "1",
					"lastUpdated": "2016-10-06T13:10:47.453-04:00"
				},
				"text": {
					"status": "generated",
					"div": "<div xmlns=\"http://www.w3.org/1999/xhtml\">Heart Rate, 77 bpm</div>"
				},
				"status": "final",
				"code": {
					"coding": [
						{
							"system": "http://loinc.org",
							"code": "8867-4"
						}
					],
					"text": "Heart Rate"
				},
				"subject": {
					"reference": "Patient/A161443"
				},
				"effectiveDateTime": "2016-09-16T06:12:45+12:00",
				"valueQuantity": {
					"value": 77,
					"unit": "bpm"
				}
			},
			"search": {
				"mode": "match"
			}
		},
		{
			"fullUrl": "http://fhirtest.uhn.ca/baseDstu3/Observation/A161488",
			"resource": {
				"resourceType": "Observation",
				"id": "A161488",
				"meta": {
					"versionId": "1",
					"lastUpdated": "2016-10-06T13:10:47.453-04:00"
				},
				"text": {
					"status": "generated",
					"div": "<div xmlns=\"http://www.w3.org/1999/xhtml\">Height, 90 cm</div>"
				},
				"status": "final",
				"code": {
					"coding": [
						{
							"system": "http://loinc.org",
							"code": "8302-2"
						}
					],
					"text": "Height"
				},
				"subject": {
					"reference": "Patient/A161443"
				},
				"effectiveDateTime": "2016-09-23T06:12:45+12:00",
				"valueQuantity": {
					"value": 90,
					"unit": "cm"
				}
			},
			"search": {
				"mode": "match"
			}
		},
		{
			"fullUrl": "http://fhirtest.uhn.ca/baseDstu3/Observation/A161489",
			"resource": {
				"resourceType": "Observation",
				"id": "A161489",
				"meta": {
					"versionId": "1",
					"lastUpdated": "2016-10-06T13:10:47.453-04:00"
				},
				"text": {
					"status": "generated",
					"div": "<div xmlns=\"http://www.w3.org/1999/xhtml\">Weight, 79 Kg</div>"
				},
				"status": "final",
				"code": {
					"coding": [
						{
							"system": "http://loinc.org",
							"code": "3141-9"
						}
					],
					"text": "Weight"
				},
				"subject": {
					"reference": "Patient/A161443"
				},
				"effectiveDateTime": "2016-09-23T06:12:45+12:00",
				"valueQuantity": {
					"value": 79,
					"unit": "Kg"
				}
			},
			"search": {
				"mode": "match"
			}
		},
		{
			"fullUrl": "http://fhirtest.uhn.ca/baseDstu3/Observation/A161494",
			"resource": {
				"resourceType": "Observation",
				"id": "A161494",
				"meta": {
					"versionId": "1",
					"lastUpdated": "2016-10-06T13:10:47.453-04:00"
				},
				"text": {
					"status": "generated",
					"div": "<div xmlns=\"http://www.w3.org/1999/xhtml\">Weight, 77.7 Kg</div>"
				},
				"status": "final",
				"code": {
					"coding": [
						{
							"system": "http://loinc.org",
							"code": "3141-9"
						}
					],
					"text": "Weight"
				},
				"subject": {
					"reference": "Patient/A161443"
				},
				"effectiveDateTime": "2016-09-16T06:12:45+12:00",
				"valueQuantity": {
					"value": 77.7,
					"unit": "Kg"
				}
			},
			"search": {
				"mode": "match"
			}
		},
		{
			"fullUrl": "http://fhirtest.uhn.ca/baseDstu3/Practitioner/A45514",
			"resource": {
				"resourceType": "Practitioner",
				"id": "A45514",
				"meta": {
					"versionId": "1",
					"lastUpdated": "2016-05-07T11:45:53.880-04:00"
				},
				"text": {
					"status": "generated",
					"div": "<div xmlns=\"http://www.w3.org/1999/xhtml\">Dr Annette Jones</div>"
				},
				"identifier": [
					{
						"system": "http://fhir.hl7.org.nz/identifier",
						"value": "aj"
					}
				],
				"name": [
					{
						"text": "Dr Annette Jones"
					}
				]
			},
			"search": {
				"mode": "include"
			}
		},
		{
			"fullUrl": "http://fhirtest.uhn.ca/baseDstu3/Practitioner/A45515",
			"resource": {
				"resourceType": "Practitioner",
				"id": "A45515",
				"meta": {
					"versionId": "1",
					"lastUpdated": "2016-05-07T11:45:53.918-04:00"
				},
				"text": {
					"status": "generated",
					"div": "<div xmlns=\"http://www.w3.org/1999/xhtml\">Dr John Doe</div>"
				},
				"identifier": [
					{
						"system": "http://fhir.hl7.org.nz/identifier",
						"value": "jd"
					}
				],
				"name": [
					{
						"text": "Dr John Doe"
					}
				]
			},
			"search": {
				"mode": "include"
			}
		}
	]
}
