{
	"resourceType" : "Bundle",
	"type" : "transaction",
	"entry" : [
		{
			"fullUrl" : "Claim/OPA-Claim1",
			"resource" : {
				"resourceType": "Claim",
				"id": "OPA-Claim1",
				"meta" : {
					"profile" : [
						"http://hl7.org/fhir/us/davinci-pas/StructureDefinition/profile-claim"
					]
				},
				"extension" : [
					{
						"url" : "http://hl7.org/fhir/us/davinci-pas/StructureDefinition/extension-levelOfServiceCode",
						"valueCodeableConcept" : {
							"coding" : [
								{
									"system" : "http://codesystem.x12.org/005010/1338",
									"code" : "U",
									"display" : "Urgent"
								}
							]
						}
					}
				],
				"identifier" : [
					{
						"extension" : [
							{
								"url" : "http://hl7.org/fhir/us/davinci-pas/StructureDefinition/extension-identifierJurisdiction",
								"valueCodeableConcept" : {
									"coding" : [
										{
											"system" : "https://www.usps.com/",
											"code" : "MA"
										}
									]
								}
							},
							{
								"url" : "http://hl7.org/fhir/us/davinci-pas/StructureDefinition/extension-identifierSubDepartment",
								"valueString" : "223412"
							}
						],
						"system" : "http://example.org/PATIENT_EVENT_TRACE_NUMBER",
						"value" : "111099",
						"assigner" : {
							"identifier" : {
								"system" : "http://example.org/USER_ASSIGNED",
								"value" : "9012345678"
							}
						}
					}
				],
				"status" : "active",
				"type" : {
					"coding" : [
						{
							"system" : "http://terminology.hl7.org/CodeSystem/claim-type",
							"code" : "professional"
						}
					]
				},
				"use": "preauthorization",
				"patient": {
					"reference": "Patient/OPA-Patient1"
				},
				"created" : "2005-05-02",
				"insurer" : {
					"reference" : "Organization/OPA-PayorOrganization1"
				},
				"provider" : {
					"reference" : "Organization/OPA-ProviderOrganization1"
				},
				"facility": {
					"reference": "Location/OPA-Location1"
				},
				"priority" : {
					"coding" : [
						{
							"system" : "http://terminology.hl7.org/CodeSystem/processpriority",
							"code" : "normal"
						}
					]
				},
				"careTeam" : [
					{
						"extension" : [
							{
								"url" : "http://hl7.org/fhir/us/davinci-pas/StructureDefinition/extension-careTeamClaimScope",
								"valueBoolean" : true
							}
						],
						"sequence" : 1,
						"provider" : {
							"reference" : "Practitioner/OPA-OperatingPhysician1"
						}
					},
					{
						"extension" : [
							{
								"url" : "http://hl7.org/fhir/us/davinci-pas/StructureDefinition/extension-careTeamClaimScope",
								"valueBoolean" : true
							}
						],
						"sequence" : 2,
						"provider" : {
							"reference" : "Practitioner/OPA-AttendingPhysician1"
						}
					}
				],
				"diagnosis": [
					{
						"sequence": 123,
						"diagnosisReference": {
							"reference": "Condition/OPA-Condition1"
						}
					}
				],
				"procedure": [
					{
						"sequence": 1,
						"procedureReference": {
							"reference": "Procedure/OPA-Procedure1"
						}
					},
					{
						"sequence": 2,
						"procedureReference": {
							"reference": "Procedure/OPA-Procedure2"
						}
					}
				],
				"supportingInfo": [
					{
						"sequence": 1,
						"category": {
							"coding": [
								{
									"system": "http://hl7.org/us/davinci-pas/CodeSystem/PASSupportingInfoType",
									"code": "patientEvent"
								}
							]
						},
						"timingPeriod": {
							"start": "2015-10-01T00:00:00-07:00",
							"end": "2015-10-05T00:00:00-07:00"
						}
					}
				],
				"insurance" : [
					{
						"sequence" : 1,
						"focal" : true,
						"coverage" : {
							"reference" : "Coverage/OPA-Coverage1"
						}
					}
				],
				"item" : [
					{
						"extension" : [
							{
								"url" : "http://hl7.org/fhir/us/davinci-pas/StructureDefinition/extension-itemTraceNumber",
								"valueIdentifier" : {
									"system" : "http://example.org/ITEM_TRACE_NUMBER",
									"value" : "1122334"
								}
							},
							{
								"url" : "http://hl7.org/fhir/us/davinci-pas/StructureDefinition/extension-authorizationNumber",
								"valueString" : "1122445"
							},
							{
								"url" : "http://hl7.org/fhir/us/davinci-pas/StructureDefinition/extension-administrationReferenceNumber",
								"valueString" : "9988311"
							},
							{
								"url" : "http://hl7.org/fhir/us/davinci-pas/StructureDefinition/extension-serviceItemRequestType",
								"valueCodeableConcept" : {
									"coding" : [
										{
											"system" : "http://codesystem.x12.org/005010/1525",
											"code" : "SC",
											"display" : "Specialty Care Review"
										}
									]
								}
							},
							{
								"url" : "http://hl7.org/fhir/us/davinci-pas/StructureDefinition/extension-certificationType",
								"valueCodeableConcept" : {
									"coding" : [
										{
											"system" : "http://codesystem.x12.org/005010/1322",
											"code" : "I",
											"display" : "Initial"
										}
									]
								}
							},
							{
								"url" : "http://hl7.org/fhir/us/davinci-pas/StructureDefinition/extension-requestedService",
								"valueReference" : {
									"reference" : "ServiceRequest/OPA-ServiceRequest1"
								}
							},
							{
								"url" : "http://hl7.org/fhir/us/davinci-pas/StructureDefinition/extension-epsdtIndicator",
								"valueBoolean" : false
							},
							{
								"url" : "http://hl7.org/fhir/us/davinci-pas/StructureDefinition/extension-nursingHomeResidentialStatus",
								"valueCodeableConcept" : {
									"coding" : [
										{
											"system" : "http://codesystem.x12.org/005010/1345",
											"code" : "2",
											"display" : "Newly Admitted"
										}
									]
								}
							},
							{
								"url" : "http://hl7.org/fhir/us/davinci-pas/StructureDefinition/extension-nursingHomeLevelOfCare",
								"valueCodeableConcept" : {
									"coding" : [
										{
											"system" : "http://codesystem.x12.org/005010/1337",
											"code" : "2",
											"display" : "Intermediate Care Facility (ICF)"
										}
									]
								}
							},
							{
								"url" : "http://hl7.org/fhir/us/davinci-pas/StructureDefinition/extension-revenueUnitRateLimit",
								"valueDecimal" : 100
							}
						],
						"sequence" : 1,
						"careTeamSequence" : [
							1
						],
						"diagnosisSequence" : [
							1
						],
						"productOrService" : {
							"coding" : [
								{
									"system" : "http://codesystem.x12.org/005010/1365",
									"code" : "3",
									"display" : "Consultation"
								}
							]
						},
						"locationCodeableConcept" : {
							"coding" : [
								{
									"system" : "https://www.cms.gov/Medicare/Coding/place-of-service-codes/Place_of_Service_Code_Set",
									"code" : "11"
								}
							]
						}
					}
				]
			},
			"request" : {
				"method" : "PUT",
				"url" : "Claim/OPA-Claim1"
			}
		},
		{
			"fullUrl" : "Condition/OPA-Condition1",
			"resource" : {
				"resourceType": "Condition",
				"id": "OPA-Condition1",
				"code": {
					"coding": [
						{
							"system": "http://hl7.org/fhir/sid/icd-10-cm",
							"code": "G1221",
							"display": "G1221,Amyotrophic lateral sclerosis"
						}
					]
				},
				"subject": {
					"reference": "Patient/OPA-Patient1"
				}
			},
			"request" : {
				"method" : "PUT",
				"url" : "Condition/OPA-Condition1"
			}
		},
		{
			"fullUrl" : "Organization/OPA-ProviderOrganization1",
			"resource" : {
				"resourceType": "Organization",
				"id": "OPA-ProviderOrganization1",
				"meta": {
					"profile": [
						"http://hl7.org/fhir/us/core/StructureDefinition/us-core-organization"
					]
				},
				"text": {
					"status": "generated",
					"div": "<div xmlns=\"http://www.w3.org/1999/xhtml\"><p><b>Generated Narrative with Details</b></p><p><b>id</b>: example-organization-2</p><p><b>meta</b>: </p><p><b>identifier</b>: 1407071236, 121111111</p><p><b>active</b>: true</p><p><b>type</b>: Healthcare Provider <span style=\"background: LightGoldenRodYellow\">(Details : {http://terminology.hl7.org/CodeSystem/organization-type code 'prov' = 'Healthcare Provider', given as 'Healthcare Provider'})</span></p><p><b>name</b>: Acme Clinic</p><p><b>telecom</b>: ph: (+1) 734-677-7777, customer-service@acme-clinic.org</p><p><b>address</b>: 3300 Washtenaw Avenue, Suite 227 Amherst MA 01002 USA </p></div>"
				},
				"identifier": [
					{
						"system": "http://hl7.org.fhir/sid/us-npi",
						"value": "1407071236"
					},
					{
						"system": "http://example.org/fhir/sid/us-tin",
						"value": "121111111"
					}
				],
				"active": true,
				"type": [
					{
						"coding": [
							{
								"system": "http://terminology.hl7.org/CodeSystem/organization-type",
								"code": "prov",
								"display": "Healthcare Provider"
							}
						]
					}
				],
				"name": "Acme Clinic",
				"telecom": [
					{
						"system": "phone",
						"value": "(+1) 734-677-7777"
					},
					{
						"system": "email",
						"value": "customer-service@acme-clinic.org"
					}
				],
				"address": [
					{
						"line": [
							"3300 Washtenaw Avenue, Suite 227"
						],
						"city": "Amherst",
						"state": "MA",
						"postalCode": "01002",
						"country": "USA"
					}
				],
				"contact": [
					{
						"name": {
							"use": "official",
							"family": "Dow",
							"given": [
								"Jones"
							]
						},
						"telecom": [
							{
								"system": "phone",
								"value": "555-555-5555",
								"use": "home"
							}
						]
					}
				]
			},
			"request" : {
				"method" : "PUT",
				"url" : "Organization/OPA-ProviderOrganization1"
			}
		},
		{
			"fullUrl" : "Organization/OPA-PayorOrganization1",
			"resource" : {
				"resourceType": "Organization",
				"id": "OPA-PayorOrganization1",
				"meta": {
					"versionId": "1",
					"lastUpdated": "2022-12-01T17:16:05.159+00:00"
				},
				"name": "Palmetto GBA",
				"address": [
					{
						"use": "work",
						"line": [
							"111 Dogwood Ave"
						],
						"city": "Columbia",
						"state": "SC",
						"postalCode": "29999",
						"country": "US"
					}
				]
			},
			"request" : {
				"method" : "PUT",
				"url" : "Organization/OPA-PayorOrganization1"
			}
		},
		{
			"fullUrl" : "Patient/OPA-Patient1",
			"resource" : {
				"resourceType": "Patient",
				"id": "OPA-Patient1",
				"extension": [
					{
						"url" : "http://hl7.org/fhir/us/core/StructureDefinition/us-core-race",
						"extension" : [
							{
								"url" : "ombCategory",
								"valueCoding" : {
									"system" : "urn:oid:2.16.840.1.113883.6.238",
									"code" : "2106-3",
									"display" : "White"
								}
							},
							{
								"url" : "ombCategory",
								"valueCoding" : {
									"system" : "urn:oid:2.16.840.1.113883.6.238",
									"code" : "1002-5",
									"display" : "American Indian or Alaska Native"
								}
							},
							{
								"url" : "ombCategory",
								"valueCoding" : {
									"system" : "urn:oid:2.16.840.1.113883.6.238",
									"code" : "2028-9",
									"display" : "Asian"
								}
							},
							{
								"url" : "detailed",
								"valueCoding" : {
									"system" : "urn:oid:2.16.840.1.113883.6.238",
									"code" : "1586-7",
									"display" : "Shoshone"
								}
							},
							{
								"url" : "detailed",
								"valueCoding" : {
									"system" : "urn:oid:2.16.840.1.113883.6.238",
									"code" : "2036-2",
									"display" : "Filipino"
								}
							},
							{
								"url" : "detailed",
								"valueCoding" : {
									"system" : "urn:oid:2.16.840.1.113883.6.238",
									"code" : "1735-0",
									"display" : "Alaska Native"
								}
							},
							{
								"url" : "text",
								"valueString" : "Mixed"
							}
						]
					},
					{
						"url" : "http://hl7.org/fhir/us/core/StructureDefinition/us-core-ethnicity",
						"extension" : [
							{
								"url" : "ombCategory",
								"valueCoding" : {
									"system" : "urn:oid:2.16.840.1.113883.6.238",
									"code" : "2135-2",
									"display" : "Hispanic or Latino"
								}
							},
							{
								"url" : "detailed",
								"valueCoding" : {
									"system" : "urn:oid:2.16.840.1.113883.6.238",
									"code" : "2184-0",
									"display" : "Dominican"
								}
							},
							{
								"url" : "detailed",
								"valueCoding" : {
									"system" : "urn:oid:2.16.840.1.113883.6.238",
									"code" : "2148-5",
									"display" : "Mexican"
								}
							},
							{
								"url" : "text",
								"valueString" : "Hispanic or Latino"
							}
						]
					},
					{
						"url" : "http://hl7.org/fhir/us/core/StructureDefinition/us-core-birthsex",
						"valueCode" : "M"
					}
				],
				"identifier": [
					{
						"use": "usual",
						"type": {
							"coding": [
								{
									"system": "http://terminology.hl7.org/CodeSystem/v2-0203",
									"code": "MR"
								}
							]
						},
						"system": "urn:oid:1.2.36.146.595.217.0.1",
						"value": "12345",
						"period": {
							"start": "2001-05-06"
						},
						"assigner": {
							"display": "Acme Healthcare"
						}
					}
				],
				"active": true,
				"name": [
					{
						"use": "official",
						"family": "Chalmers",
						"given": [
							"Peter",
							"James"
						]
					},
					{
						"use": "usual",
						"family": "Chalmers",
						"given": [
							"Jim"
						]
					},
					{
						"use": "maiden",
						"family": "Windsor",
						"given": [
							"Peter",
							"James"
						],
						"period": {
							"end": "2002"
						}
					}
				],
				"telecom": [
					{
						"system": "phone",
						"value": "(03) 5555 6473",
						"use": "work",
						"rank": 1
					},
					{
						"system": "phone",
						"value": "(03) 3410 5613",
						"use": "mobile",
						"rank": 2
					},
					{
						"system": "phone",
						"value": "(03) 5555 8834",
						"use": "old",
						"period": {
							"end": "2014"
						}
					}
				],
				"gender": "male",
				"birthDate": "1974-12-25",
				"_birthDate": {
					"extension": [
						{
							"url": "http://hl7.org/fhir/StructureDefinition/patient-birthTime",
							"valueDateTime": "1974-12-25T14:35:45-05:00"
						}
					]
				},
				"deceasedBoolean": false,
				"address": [
					{
						"use": "home",
						"type": "both",
						"text": "534 Erewhon St PeasantVille, Utah 84414",
						"line": [
							"534 Erewhon St"
						],
						"city": "PleasantVille",
						"district": "Rainbow",
						"state": "UT",
						"postalCode": "84414",
						"period": {
							"start": "1974-12-25"
						}
					}
				],
				"maritalStatus": {
					"coding": [
						{
							"system": "http://terminology.hl7.org/CodeSystem/v3-MaritalStatus",
							"code": "M"
						}
					]
				},
				"contact": [
					{
						"relationship": [
							{
								"coding": [
									{
										"system": "http://terminology.hl7.org/CodeSystem/v2-0131",
										"code": "N"
									}
								]
							}
						],
						"name": {
							"family": "du Marché",
							"_family": {
								"extension": [
									{
										"url": "http://hl7.org/fhir/StructureDefinition/humanname-own-prefix",
										"valueString": "VV"
									}
								]
							},
							"given": [
								"Bénédicte"
							]
						},
						"telecom": [
							{
								"system": "phone",
								"value": "+33 (237) 998327"
							}
						],
						"address": {
							"use": "home",
							"type": "both",
							"line": [
								"534 Erewhon St"
							],
							"city": "PleasantVille",
							"district": "Rainbow",
							"state": "VT",
							"postalCode": "3999",
							"period": {
								"start": "1974-12-25"
							}
						},
						"gender": "female",
						"period": {
							"start": "2012"
						}
					}
				]
			},
			"request" : {
				"method" : "PUT",
				"url" : "Patient/OPA-Patient1"
			}
		},
		{
			"fullUrl" : "Practitioner/OPA-AttendingPhysician1",
			"resource" : {
				"resourceType": "Practitioner",
				"id": "OPA-AttendingPhysician1",
				"meta": {
					"profile": [
						"http://hl7.org/fhir/us/core/StructureDefinition/us-core-practitioner"
					]
				},
				"text": {
					"status": "generated",
					"div": "<div xmlns=\"http://www.w3.org/1999/xhtml\"><p><b>Generated Narrative with Details</b></p><p><b>id</b>: practitioner-1</p><p><b>meta</b>: </p><p><b>identifier</b>: 9941339108, 25456</p><p><b>name</b>: Ronald Bone </p><p><b>address</b>: 1003 Healthcare Drive Amherst MA 01002 (HOME)</p></div>"
				},
				"identifier": [
					{
						"system": "http://hl7.org.fhir/sid/us-npi",
						"value": "9941339108"
					},
					{
						"system": "http://www.acme.org/practitioners",
						"value": "25456"
					}
				],
				"name": [
					{
						"family": "Bone",
						"given": [
							"Ronald"
						],
						"prefix": [
							"Dr"
						]
					}
				],
				"address": [
					{
						"use": "home",
						"line": [
							"1003 Healthcare Drive"
						],
						"city": "Amherst",
						"state": "MA",
						"postalCode": "01002"
					}
				]
			},
			"request" : {
				"method" : "PUT",
				"url" : "Practitioner/OPA-AttendingPhysician1"
			}
		},
		{
			"fullUrl" : "Practitioner/OPA-OperatingPhysician1",
			"resource" : {
				"resourceType": "Practitioner",
				"id": "OPA-OperatingPhysician1",
				"meta": {
					"profile": [
						"http://hl7.org/fhir/us/core/StructureDefinition/us-core-practitioner"
					]
				},
				"text": {
					"status": "generated",
					"div": "<div xmlns=\"http://www.w3.org/1999/xhtml\"><p><b>Generated Narrative with Details</b></p><p><b>id</b>: practitioner-2</p><p><b>meta</b>: </p><p><b>identifier</b>: 1245319599, 456789</p><p><b>name</b>: Fielding Kathy </p><p><b>address</b>: 1080 FIRST COLONIAL RD Virginia Beach VA 21454-2406 (WORK)</p></div>"
				},
				"identifier": [
					{
						"system": "http://hl7.org.fhir/sid/us-npi",
						"value": "1245319599"
					},
					{
						"system": "http://www.acme.org/practitioners",
						"value": "456789"
					}
				],
				"name": [
					{
						"family": "Kathy",
						"given": [
							"Fielding"
						],
						"prefix": [
							"Dr"
						]
					}
				],
				"address": [
					{
						"use": "work",
						"line": [
							"1080 FIRST COLONIAL RD"
						],
						"city": "Virginia Beach",
						"state": "VA",
						"postalCode": "21454-2406"
					}
				]
			},
			"request" : {
				"method" : "PUT",
				"url" : "Practitioner/OPA-OperatingPhysician1"
			}
		},
		{
			"fullUrl" : "Procedure/OPA-Procedure1",
			"resource" : {
				"resourceType": "Procedure",
				"id": "OPA-Procedure1",
				"text": {
					"status": "generated",
					"div": "<div xmlns=\"http://www.w3.org/1999/xhtml\">Routine Appendectomy</div>"
				},
				"status": "preparation",
				"code": {
					"coding": [
						{
							"system": "http://www.ama-assn.org/go/cpt",
							"code": "64612",
							"display": "CHEMODENERVATION OF MUSCLE(S); MUSCLE(S) INNERVATED BY FACIAL NERVE, UNILATERAL (EG, FOR BLEPHAROSPASM, HEMIFACIAL SPASM)"
						}
					],
					"text": "Botox"
				},
				"subject": {
					"reference": "Patient/OPA-Patient1"
				}
			},
			"request" : {
				"method" : "PUT",
				"url" : "Procedure/OPA-Procedure1"
			}
		},
		{
			"fullUrl" : "Procedure/OPA-Procedure2",
			"resource" : {
				"resourceType": "Procedure",
				"id": "OPA-Procedure2",
				"text": {
					"status": "generated",
					"div": "<div xmlns=\"http://www.w3.org/1999/xhtml\">Routine Appendectomy</div>"
				},
				"status": "preparation",
				"code": {
					"coding": [
						{
							"system": "http://www.ama-assn.org/go/cpt",
							"code": "64615",
							"display": "CHEMODENERVATION OF MUSCLE(S); MUSCLE(S) INNERVATED BY FACIAL, TRIGEMINAL, CERVICAL SPINAL AND ACCESSORY NERVES, BILATERAL (EG, FOR CHRONIC MIGRAINE)"
						}
					],
					"text": "Botox"
				},
				"subject": {
					"reference": "Patient/OPA-Patient1"
				}
			},
			"request" : {
				"method" : "PUT",
				"url" : "Procedure/OPA-Procedure2"
			}
		},
		{
			"fullUrl" : "ServiceRequest/OPA-ServiceRequest1",
			"resource" : {
				"resourceType": "ServiceRequest",
				"id": "OPA-ServiceRequest1",
				"meta": {
					"profile": [
						"http://hl7.org/fhir/us/davinci-crd/R4/StructureDefinition/profile-servicerequest-r4"
					]
				},
				"status": "draft",
				"code": {
					"coding": [
						{
							"system": "http://www.ama-assn.org/go/cpt",
							"code": "99241",
							"display": "Testing Service for Outpatient Prior Auth"
						}
					]
				},
				"subject": {
					"reference": "Patient/OPA-Patient1"
				},
				"authoredOn": "2018-08-08",
				"insurance": [
					{
						"reference": "Coverage/OPA-Coverage1"
					}
				],
				"requester": {
					"reference": "Organization/OPA-ProviderOrganization1"
				},
				"performer": [
					{
						"reference": "Practitioner/OPA-OperatingPhysician1"
					},
					{
						"reference": "Practitioner/OPA-AttendingPhysician1"
					}
				]
			},
			"request" : {
				"method" : "PUT",
				"url" : "ServiceRequest/OPA-ServiceRequest1"
			}
		},
		{
			"fullUrl" : "Location/OPA-Location1",
			"resource" : {
				"resourceType": "Location",
				"id": "OPA-Location1",
				"meta": {
					"versionId": "1",
					"lastUpdated": "2022-12-01T17:28:20.715+00:00"
				},
				"address": {
					"line": [
						"100 Good St"
					],
					"city": "Bedford",
					"state": "MA",
					"postalCode": "01730"
				}
			},
			"request" : {
				"method" : "PUT",
				"url" : "Location/OPA-Location1"
			}
		},
		{
			"fullUrl" : "Coverage/OPA-Coverage1",
			"resource" : {
				"resourceType": "Coverage",
				"id": "OPA-Coverage1",
				"meta": {
					"versionId": "1",
					"lastUpdated": "2019-07-11T06:27:08.949+00:00",
					"profile": [
						"http://hl7.org/fhir/us/davinci-deqm/STU3/StructureDefinition/coverage-deqm"
					]
				},
				"identifier": [
					{
						"system": "http://benefitsinc.com/certificate",
						"value": "10138556"
					}
				],
				"status": "active",
				"type": {
					"coding": [
						{
							"system": "http://terminology.hl7.org/CodeSystem/v3-ActCode",
							"code": "HIP",
							"display": "health insurance plan policy"
						}
					]
				},
				"policyHolder": {
					"reference": "Patient/OPA-Patient1"
				},
				"subscriber": {
					"reference": "Patient/OPA-Patient1"
				},
				"subscriberId": "525697298M",
				"beneficiary": {
					"reference": "Patient/OPA-Patient1"
				},
				"relationship": {
					"coding": [
						{
							"code": "self"
						}
					]
				},
				"payor": [
					{
						"reference": "Organization/OPA-PayorOrganization1"
					}
				]
			},
			"request" : {
				"method" : "PUT",
				"url" : "Coverage/OPA-Coverage1"
			}
		}
	]
}
