{
	"resourceType": "Parameters",
	"id": "EXM130-7.3.000-end-to-end-submit-data-bundle",
	"parameter": [
		{
			"name": "measureReport",
			"resource": {
				"resourceType": "MeasureReport",
				"id": "col-measurereport",
				"meta": {
					"profile": [
						"http://hl7.org/fhir/us/davinci-deqm/StructureDefinition/datax-measurereport-deqm"
					]
				},
				"extension": [
					{
						"url": "http://hl7.org/fhir/us/davinci-deqm/StructureDefinition/extension-submitDataUpdateType",
						"valueCode": "incremental"
					}
				],
				"status": "complete",
				"type": "data-collection",
				"measure": "http://ecqi.healthit.gov/ecqms/Measure/ColorectalCancerScreeningsFHIR",
				"subject": {
					"reference": "Patient/numer-EXM130"
				},
				"date": "2021-01-01T16:59:52.404Z",
				"reporter": {
					"reference": "Organization/organization03"
				},
				"period": {
					"start": "2019-01-01",
					"end": "2019-12-31"
				},
				"evaluatedResource": [
					{
						"reference": "Procedure/numer-EXM130-2"
					}
				]
			}
		},
		{
			"name": "resource",
			"resource": {
				"resourceType": "Patient",
				"id": "numer-EXM130",
				"meta": {
					"profile": [
						"http://hl7.org/fhir/us/core/StructureDefinition/us-core-patient"
					]
				},
				"extension": [
					{
						"url": "http://hl7.org/fhir/us/core/StructureDefinition/us-core-race",
						"extension": [
							{
								"url": "ombCategory",
								"valueCoding": {
									"system": "urn:oid:2.16.840.1.113883.6.238",
									"code": "2028-9",
									"display": "Asian"
								}
							}
						]
					},
					{
						"url": "http://hl7.org/fhir/us/core/StructureDefinition/us-core-ethnicity",
						"extension": [
							{
								"url": "ombCategory",
								"valueCoding": {
									"system": "urn:oid:2.16.840.1.113883.6.238",
									"code": "2135-2",
									"display": "Hispanic or Latino"
								}
							}
						]
					}
				],
				"identifier": [
					{
						"use": "usual",
						"type": {
							"coding": [
								{
									"system": "http://terminology.hl7.org/CodeSystem/v2-0203",
									"code": "MR",
									"display": "Medical Record Number"
								}
							]
						},
						"system": "http://hospital.smarthealthit.org",
						"value": "999999992"
					}
				],
				"name": [
					{
						"family": "Blitz",
						"given": [
							"Don"
						]
					}
				],
				"gender": "male",
				"birthDate": "1965-01-01"
			}
		},
		{
			"name": "resource",
			"resource": {
				"resourceType": "Encounter",
				"id": "numer-EXM130-2",
				"meta": {
					"profile": [
						"http://hl7.org/fhir/us/core/StructureDefinition/us-core-encounter"
					]
				},
				"status": "finished",
				"class": {
					"system": "http://terminology.hl7.org/CodeSystem/v3-ActCode",
					"code": "AMB",
					"display": "ambulatory"
				},
				"type": [
					{
						"coding": [
							{
								"system": "http://www.ama-assn.org/go/cpt",
								"code": "99201",
								"display": "Office or other outpatient visit for the evaluation and management of a new patient, which requires these 3 key components: A problem focused history; A problem focused examination; Straightforward medical decision making. Counseling and/or coordination of care with other physicians, other qualified health care professionals, or agencies are provided consistent with the nature of the problem(s) and the patient's and/or family's needs. Usually, the presenting problem(s) are self limited or minor. Typically, 10 minutes are spent face-to-face with the patient and/or family."
							}
						]
					}
				],
				"subject": {
					"reference": "Patient/numer-EXM130"
				},
				"period": {
					"start": "2020-05-01T09:00:00-06:00",
					"end": "2020-05-01T14:00:00-06:00"
				}
			}
		},
		{
			"name": "resource",
			"resource": {
				"resourceType": "Procedure",
				"id": "numer-EXM130-2",
				"meta": {
					"profile": [
						"http://hl7.org/fhir/us/core/StructureDefinition/us-core-procedure"
					]
				},
				"status": "completed",
				"code": {
					"coding": [
						{
							"system": "http://www.ama-assn.org/go/cpt",
							"code": "44388",
							"display": "Colonoscopy through stoma; with ablation of tumor(s), polyp(s), or other lesion(s) not amenable to removal by hot biopsy forceps, bipolar cautery or snare technique"
						}
					]
				},
				"subject": {
					"reference": "Patient/numer-EXM130"
				},
				"performedPeriod": {
					"start": "2020-05-01T10:00:00-06:00",
					"end": "2020-05-01T12:00:00-06:00"
				}
			}
		},
		{
			"name": "resource",
			"resource": {
				"resourceType": "Practitioner",
				"id": "practitioner01",
				"meta": {
					"source": "http://example.org/fhir/server",
					"profile": [
						"http://hl7.org/fhir/us/davinci-deqm/StructureDefinition/practitioner-deqm"
					]
				},
				"identifier": [
					{
						"use": "official",
						"type": {
							"coding": [
								{
									"system": "http://terminology.hl7.org/CodeSystem/v2-0203",
									"code": "PRN",
									"display": "Provider number"
								}
							]
						},
						"system": "http://hl7.org/fhir/sid/us-npi",
						"value": "456789123"
					}
				],
				"active": true,
				"name": [
					{
						"family": "Hale",
						"given": [
							"Cody"
						],
						"suffix": [
							"MD"
						]
					}
				],
				"gender": "male"
			}
		},
		{
			"name": "resource",
			"resource": {
				"resourceType": "Organization",
				"id": "organization03",
				"meta": {
					"profile": [
						"http://hl7.org/fhir/us/davinci-deqm/StructureDefinition/organization-deqm"
					]
				},
				"identifier": [
					{
						"use": "official",
						"type": {
							"coding": [
								{
									"system": "http://terminology.hl7.org/CodeSystem/v2-0203",
									"code": "PRN",
									"display": "Provider number"
								}
							]
						},
						"system": "http://hl7.org/fhir/sid/us-npi",
						"value": "345678912",
						"assigner": {
							"display": "www.cms.gov"
						}
					}
				],
				"active": true,
				"type": [
					{
						"coding": [
							{
								"system": "http://terminology.hl7.org/CodeSystem/organization-type",
								"code": "prov",
								"display": "Healthcare Provider"
							}
						]
					}
				],
				"name": "DaVinciHospital03",
				"telecom": [
					{
						"system": "phone",
						"value": "(+1) 201-555-1212"
					}
				],
				"address": [
					{
						"line": [
							"94 Olive Ave."
						],
						"city": "Union City",
						"state": "NJ",
						"postalCode": "07087",
						"country": "USA"
					}
				]
			}
		}
	]
}
