<Bundle xmlns="http://hl7.org/fhir">
	<type value="transaction"/>
	<entry>
		<fullUrl value="urn:uuid:e5c75927-d382-47cb-bada-aa4dc60d2793"/>
		<resource>
			<DocumentManifest>
				<masterIdentifier>
					<value value="urn:uuid:17529370-ccb5-4a3f-8225-0c3231350907-123"/>
				</masterIdentifier>
				<identifier>
					<value value="urn:uuid:17529370-ccb5-4a3f-8225-0c3231350907"/>
				</identifier>
				<subject>
					<reference value="urn:uuid:96e85cca-9797-45d6-834a-c4eb27f331d3"/>
				</subject>
				<recipient>
					<reference value="urn:uuid:d1a465e9-78d6-465c-8a5f-09a0f65ad0ca"/>
				</recipient>
				<type>
					<text value="Overall Plan of Care/Advance Care Directives"/>
				</type>
				<author>
					<reference value="urn:uuid:c7ed89ea-e167-4fab-876c-93d535cb0553"/>
				</author>
				<created value="2016-12-12T10:41:40+09:00"/>
				<status value="current"/>
				<content>
					<pReference>
						<reference value="urn:uuid:821724cc-f507-43d6-b0bb-178c320700a2"/>
					</pReference>
				</content>
			</DocumentManifest>
		</resource>
		<request>
			<method value="POST"/>
			<url value="DocumentManifest"/>
		</request>
	</entry>
	<entry>
		<fullUrl value="urn:uuid:821724cc-f507-43d6-b0bb-178c320700a2"/>
		<resource>
			<DocumentReference>
				<masterIdentifier>
					<value value="aa322f9c-290b-4d48-9c85-f2ae5fad7f33"/>
				</masterIdentifier>
				<subject>
					<reference value="urn:uuid:96e85cca-9797-45d6-834a-c4eb27f331d3"/>
				</subject>
				<type>
					<coding>
						<system value="2.16.840.1.113883.6.1"/>
						<code value="52521-2"/>
						<display value="Overall Plan of Care/Advance Care Directives"/>
					</coding>
				</type>
				<author>
					<reference value="urn:uuid:c7ed89ea-e167-4fab-876c-93d535cb0553"/>
				</author>
				<indexed value="2016-12-12T10:41:40.936+09:00"/>
				<status value="current"/>
				<content>
					<attachment>
						<contentType value="text/xml"/>
						<language value="ko"/>
						<url value="urn:uuid:eafb82bb-5aa4-4428-9648-13f62bfe01a4"/>
						<size value="9475"/>
						<hash value="NEVCMzY5Njg2RjU1ODRFNDgzNjJFNTEwQzNBMTgxOTZGNkM5QkQ4NQ=="/>
					</attachment>
					<format>
						<system value="POCD_HD000040"/>
					</format>
				</content>
				<context>
					<period>
						<start value="2016-01-26T03:54:32Z"/>
						<end value="2016-01-26T03:54:32Z"/>
					</period>
				</context>
			</DocumentReference>
		</resource>
		<request>
			<method value="POST"/>
			<url value="DocumentReference"/>
		</request>
	</entry>
	<entry>
		<fullUrl value="urn:uuid:96e85cca-9797-45d6-834a-c4eb27f331d3"/>
		<resource>
			<Patient>
				<identifier>
					<use value="usual"/>
					<type>
						<coding>
							<system value="http://hl7.org/fhir/v2/0203"/>
							<code value="MR"/>
						</coding>
					</type>
					<system value="urn:oid:1.2.410.1.12345"/>
					<value value="pt001"/>
					<assigner>
						<display value="Bundang Hospital"/>
					</assigner>
				</identifier>
				<active value="true"/>
				<name>
					<use value="official"/>
					<family value="Kim"/>
					<given value="Henry"/>
				</name>
				<gender value="male"/>
				<birthDate value="1998-01-11"/>
				<contact>
					<telecom>
						<system value="phone"/>
						<value value="tel:000-0000-0000"/>
					</telecom>
				</contact>
				<managingOrganization>
					<display value="Bundang Hospital"/>
				</managingOrganization>
			</Patient>
		</resource>
		<request>
			<method value="POST"/>
			<url value="Patient"/>
		</request>
	</entry>
	<entry>
		<fullUrl value="urn:uuid:c7ed89ea-e167-4fab-876c-93d535cb0553"/>
		<resource>
			<Practitioner>
				<active value="true"/>
				<name>
					<family value="Kim"/>
					<given value="Steve"/>
				</name>
			</Practitioner>
		</resource>
		<request>
			<method value="POST"/>
			<url value="Practitioner"/>
		</request>
	</entry>
	<entry>
		<fullUrl value="urn:uuid:d1a465e9-78d6-465c-8a5f-09a0f65ad0ca"/>
		<resource>
			<Practitioner>
				<active value="true"/>
				<name>
					<family value="Jung"/>
					<given value="David"/>
				</name>
			</Practitioner>
		</resource>
		<request>
			<method value="POST"/>
			<url value="Practitioner"/>
		</request>
	</entry>
	<entry>
		<fullUrl value="urn:uuid:eafb82bb-5aa4-4428-9648-13f62bfe01a4"/>
		<resource>
			<Binary>
				<contentType value="text/xml"/>
				<content
					value=""/>
			</Binary>
		</resource>
		<request>
			<method value="POST"/>
			<url value="Binary"/>
		</request>
	</entry>
</Bundle>