                {
  "resourceType": "Bundle",
  "type": "transaction",
  "entry": [
    {
      "fullUrl": "Organization/OrgSJHMC",
      "resource": {
        "resourceType": "Organization",
        "id": "OrgSJHMC",
        "identifier": [
          {
            "system": "http://www.foo.com/fhir/OrganizationIdentifier",
            "value": "SJHMC"
          }
        ],
        "name": "SJHMC"
      },
      "request": {
        "method": "PUT",
        "url": "Organization/OrgSJHMC"
      }
    },
    {
      "fullUrl": "Binary/BinaryQ4564699444",
      "resource": {
        "resourceType": "Binary",
        "id": "BinaryQ4564699444",
        "contentType": "text/plain",
        "content": ""
      },
      "request": {
        "method": "POST",
        "url": "Binary"
      }
    },
    {
      "fullUrl": "Patient/Patient1063259",
      "resource": {
        "resourceType": "Patient",
        "id": "Patient1063259",
        "extension": [
          {
            "url": "http://www.foo.com/fhir/extensions/CurrentWorkFlow",
            "valueString": "pulmonary"
          }
        ],
        "identifier": [
          {
            "system": "http://www.foo.com/fhir/identifier-type/EnterpriseId",
            "value": "1063259"
          },
          {
            "type": {
              "coding": [
                {
                  "system": "http://www.foo.com/Patient/UnknownCode",
                  "code": "MRN",
                  "display": "MRN"
                }
              ]
            },
            "system": "http://www.foo.com/fhir/identifier-type/MR",
            "value": "963258"
          },
          {
            "type": {
              "coding": [
                {
                  "system": "http://www.foo.com/Patient/UnknownCode",
                  "code": "MRN",
                  "display": "MRN"
                }
              ]
            },
            "system": "http://www.foo.com/fhir/identifier-type/MRN",
            "value": "963258"
          },
          {
            "system": "http://www.foo.com/fhir/identifier-type/",
            "value": "1063259"
          },
          {
            "type": {
              "coding": [
                {
                  "system": "http://hl7.org/fhir/identifier-type",
                  "code": "AN",
                  "display": "Account number"
                }
              ]
            },
            "system": "http://www.foo.com/fhir/identifier-type/AN",
            "value": "18513341"
          }
        ],
        "name": [
          {
            "use": "usual",
            "family": [
              "Boba"
            ],
            "given": [
              "Fett"
            ]
          }
        ],
        "telecom": [
          {
            "system": "phone",
            "value": "(602)666-5555",
            "use": "home"
          },
          {
            "system": "phone",
            "value": "(000)000-0000",
            "use": "work"
          }
        ],
        "gender": "female",
        "birthDate": "1971-10-12",
        "address": [
          {
            "line": [
              "124 W THOMAS RD"
            ],
            "city": "PHOENIX",
            "state": "AZ",
            "postalCode": "85013"
          }
        ],
        "maritalStatus": {
          "coding": [
            {
              "system": "http://hl7.org/fhir/v3/MaritalStatus",
              "code": "S",
              "display": "Never Married"
            }
          ]
        },
        "multipleBirthInteger": 0,
        "communication": [
          {
            "language": {
              "coding": [
                {
                  "code": "1"
                }
              ]
            },
            "preferred": true
          }
        ],
        "active": false
      },
      "request": {
        "method": "PUT",
        "url": "Patient/Patient1063259"
      }
    },
    {
      "fullUrl": "Practitioner/Pract057539",
      "resource": {
        "resourceType": "Practitioner",
        "id": "Pract057539",
        "identifier": [
          {
            "use": "official",
            "system": "http://www.foo.com/fhir/PractitionerIdentifier",
            "value": "057539"
          }
        ],
        "name": {
          "family": [
            "Fgdeg"
          ],
          "given": [
            "Ugngx"
          ]
        },
        "gender": "unknown",
        "practitionerRole": [
          {
            "role": {
              "coding": [
                {
                  "system": "http://hl7.org/fhir/practitioner-role",
                  "code": "doctor",
                  "display": "Doctor"
                }
              ]
            }
          }
        ],
        "communication": [
          {
            "coding": [
              {
                "code": "1"
              }
            ]
          }
        ]
      },
      "request": {
        "method": "PUT",
        "url": "Practitioner/Pract057539"
      }
    },
    {
      "fullUrl": "Practitioner/Pract12345",
      "resource": {
        "resourceType": "Practitioner",
        "id": "Pract12345",
        "identifier": [
          {
            "use": "official",
            "system": "http://www.foo.com/fhir/PractitionerIdentifier",
            "value": "12345"
          }
        ],
        "name": {
          "family": [
            "TestG"
          ],
          "given": [
            "ED Physician"
          ]
        },
        "gender": "unknown",
        "practitionerRole": [
          {
            "role": {
              "coding": [
                {
                  "system": "http://hl7.org/fhir/practitioner-role",
                  "code": "doctor",
                  "display": "Doctor"
                }
              ]
            }
          }
        ],
        "communication": [
          {
            "coding": [
              {
                "code": "1"
              }
            ]
          }
        ]
      },
      "request": {
        "method": "PUT",
        "url": "Practitioner/Pract12345"
      }
    },
    {
      "fullUrl": "Location/LocTOW8.8T22.01",
      "resource": {
        "resourceType": "Location",
        "id": "LocTOW8.8T22.01",
        "identifier": [
          {
            "system": "http://www.foo.com/fhir/LocationIdentifier",
            "value": "TOW8.8T22.01"
          }
        ],
        "name": "SJHMC"
      },
      "request": {
        "method": "PUT",
        "url": "Location/LocTOW8.8T22.01"
      }
    },
    {
      "fullUrl": "Observation/ObxSURGPATH0",
      "resource": {
        "resourceType": "Observation",
        "id": "ObxSURGPATH0",
        "identifier": [
          {
            "type": {
              "coding": [
                {
                  "system": "http://www.foo.com/fhir/",
                  "code": "LOOKUP",
                  "display": "LOOKUP"
                }
              ]
            },
            "value": "_SURGPATH"
          }
        ],
        "status": "final",
        "code": {
          "coding": [
            {
              "system": "http://www.foo.com/Observation/UnknownCode",
              "code": "SURGPATH",
              "display": "SURGPATH"
            }
          ]
        },
        "subject": {
          "reference": "Patient/Patient1063259",
          "display": "Boba Fett "
        },
        "effectiveDateTime": "2016-03-13T15:58:50Z",
        "issued": "2016-03-13T15:58:50Z",
        "performer": [
          {
            "reference": "Practitioner/Pract12345"
          }
        ],
        "valueString": "\\\\n\\\\n\\\\n\\\\n                              Surgical Pathology Report\\\\n\\\\n     Collected Date/Time    Received Date/Time               Accession Number\\\\n     03/13/2016 10:39:00    03/13/2016 10:52:50              10-SP-17-000336\\\\n     MST                    MST\\\\n\\\\n                                      Diagnosis\\\\n     1-3.  Lung, left upper lobe, CT guided biopsies with touch preparation:\\\\n       - Poorly differentiated non-small cell carcinoma, pending special stains\\\\n\\\\n     Ntgaai-CC Rigpmga, Application Sys Analyst II - L\\\\n     (Electronically signed)\\\\n     Verified: 03/13/2016 10:58\\\\n     NR /NR\\\\n\\\\n                                Clinical Information\\\\n     Pre-op diagnosis: Transplant\\\\n     Procedure: Biopsy\\\\n     Post-op diagnosis: N/A\\\\n     Clinical History: Lung transplant\\\\n\\\\n                                 Specimen Submitted\\\\n     LUNG, TRNSBR BX\\\\n\\\\n                                  Gross Description\\\\n     1. Received in formalin labeled with the patient's name, medical record\\\\n     number and left upper lobe core biopsy, is a single red-tan, variegated,\\\\n     friable soft tissue core, 0.9 cm.  The specimen is entirely submitted in\\\\n     cassette 1A.\\\\n\\\\n     2. Received in formalin labeled with the patient's name, medical record\\\\n     number and left upper lobe core biopsy, are two pale gray, friable soft\\\\n     tissue cores, 0.4, and 1.0 cm.  The specimen is entirely submitted in\\\\n     cassette 2A.  A quick stain is prepared and examined.\\\\n\\\\n     Quick Stain Interpretation: [JME]\\\\n       QS1: Positive.\\\\n\\\\n     3.  Received in formalin labeled with the patient's name, medical record\\\\n     number and left upper lobe core biopsy, is a single red-tan soft tissue\\\\n     core, 0.5 cm.  The specimen is entirely submitted in cassette 3A.\\\\n\\\\n                               Microscopic Description\\\\n     Microscopic examination performed on all histologic sections.And also found incidental lung nodule.\\\\n\\\\n\\\\n     ZZTEST, TRANSPLANT                     1516050(SJH)",
        "device": {
          "display": "EMR"
        }
      },
      "request": {
        "method": "PUT",
        "url": "Observation/ObxSURGPATH0"
      }
    },
    {
      "fullUrl": "DiagnosticReport/ReportSPATH",
      "resource": {
        "resourceType": "DiagnosticReport",
        "id": "ReportSPATH",
        "identifier": [
          {
            "system": "http://www.foo.com/fhir/DiagnosticReport",
            "value": "5674832"
          }
        ],
        "status": "final",
        "category": {
          "coding": [
            {
              "system": "http://www.foo.com/DiagnosticReport/UnknownCode",
              "code": "00010SP20160000336",
              "display": "00010SP20160000336"
            }
          ],
          "text": "00010SP20160000336"
        },
        "code": {
          "coding": [
            {
              "system": "http://snomed.info/sct",
              "code": "SPATH",
              "display": "Surgical Pathology Report"
            }
          ],
          "text": "Surgical Pathology Report"
        },
        "subject": {
          "reference": "Patient/Patient1063259",
          "display": "Boba Fett "
        },
        "effectiveDateTime": "2016-03-13T15:39:00Z",
        "issued": "2016-03-13T15:58:50Z",
        "performer": {
          "reference": "Practitioner/Pract12345"
        },
        "request": [
          {
            "reference": "DiagnosticOrder/ORCSPATH"
          }
        ],
        "result": [
          {
            "reference": "Observation/ObxSURGPATH0"
          }
        ]
      },
      "request": {
        "method": "PUT",
        "url": "DiagnosticReport/ReportSPATH"
      }
    },
    {
      "fullUrl": "DiagnosticOrder/ORCSPATH",
      "resource": {
        "resourceType": "DiagnosticOrder",
        "id": "ORCSPATH",
        "extension": [
          {
            "url": "http://www.foo.com/fhir/extensions/ModalityType",
            "valueString": "AP"
          },
          {
            "url": "http://www.foo.com/fhir/extensions/SendingApplication",
            "valueString": "EPIC"
          }
        ],
        "subject": {
          "reference": "Patient/Patient1063259"
        },
        "orderer": {
          "reference": "Practitioner/Pract12345"
        },
        "identifier": [
          {
            "system": "http://www.foo.com/fhir/DiagnosticOrder",
            "value": "EPIC_5674832"
          }
        ],
        "status": "completed",
        "event": [
          {
            "status": "in-progress",
            "dateTime": "2016-03-13T15:39:00Z"
          }
        ],
        "item": [
          {
            "code": {
              "coding": [
                {
                  "system": "http://snomed.info/sct",
                  "code": "SPATH",
                  "display": "Surgical Pathology Report"
                }
              ],
              "text": "Surgical Pathology Report"
            }
          }
        ]
      },
      "request": {
        "method": "PUT",
        "url": "DiagnosticOrder/ORCEPIC5674832"
      }
    }
  ]
}
