{
	"resourceType": "Bundle",
	"id": "1a511d8d-443c-4ae3-b689-ce13c2666eeb",
	"text": 
	{
		
	},

	"base": "http://fhirtest.uhn.ca/baseDstu2",
	"total": 21,
	"link": 
	[
		{
			"relation": "self",
			"url": "http://10.160.2.151:28080/hapi-fhir-jpaserver/baseDstu2/Patient/1702/$everything"
		},

		{
			"relation": "next",
			"url": "http://fhirtest.uhn.ca/baseDstu2?_getpages=6d089c9d-0a6d-45a1-8e4b-4fa349dc9c97&_getpagesoffset=10&_count=10&_pretty=true"
		}
	],

	"entry": 
	[
		{
			"request": 
			{
				"method": "POST"
			},

			"resource": 
			{
				"resourceType": "Patient",
				"id": "1702",
				"meta": 
				{
					"versionId": "10",
					"lastUpdated": "2014-09-13T13:16:03.690-04:00"
				},

				"text": 
				{
					"status": "generated",
					"div": "<div><div class=\"hapiHeaderText\"> Eve <b>EVERYWOMAN </b></div><table class=\"hapiPropertyTable\"><tbody><tr><td>Identifier</td><td>f0296fae-8b85-429f-aeee-dddc025e224e</td></tr><tr><td>Address</td><td><span>29 Elm Street </span><br /><span>Manchester </span><span>NH </span><span>USA </span></td></tr><tr><td>Date of birth</td><td><span>01 October 1993</span></td></tr></tbody></table></div>"
				},

				"identifier": 
				[
					{
						"use": "usual",
						"system": "urn:fhir-starter:id",
						"value": "f0296fae-8b85-429f-aeee-dddc025e224e"
					}
				],

				"name": 
				[
					{
						"use": "usual",
						"family": 
						[
							"Everywoman"
						],

						"given": 
						[
							"Eve"
						]
					}
				],

				"birthDate": "1993-10-01",
				"address": 
				[
					{
						"use": "home",
						"text": "29 Elm Street, Manchester, NH 03101, USA",
						"line": 
						[
							"29 Elm Street"
						],

						"city": "Manchester",
						"state": "NH",
						"country": "USA"
					}
				],

				"maritalStatus": 
				{
					"coding": 
					[
						{
							"system": "http://hl7.org/fhir/v3/MaritalStatus",
							"code": "D",
							"display": "Divorced"
						}
					]
				},

				"photo": 
				[
					{
						"contentType": "image/png",
						"url": "data:image/png;base64,",
						"size": 12501
					}
				],

				"active": true
			},

			"search": 
			{
				"mode": "match"
			}
		},

		{
			"request": 
			{
				"method": "POST"
			},

			"resource": 
			{
				"resourceType": "Encounter",
				"id": "dh1428191144337",
				"meta": 
				{
					"versionId": "1",
					"lastUpdated": "2015-04-04T19:45:21.255-04:00"
				},

				"text": 
				{
					"div": "<div>Date:2015-04-05T11:45:44+12:00</div>"
				},

				"patient": 
				{
					"reference": "Patient/1702"
				},

				"period": 
				{
					"start": "2015-04-05T11:45:44+12:00"
				}
			},

			"search": 
			{
				"mode": "match"
			}
		},

		{
			"request": 
			{
				"method": "POST"
			},

			"resource": 
			{
				"resourceType": "ClinicalImpression",
				"id": "20452",
				"meta": 
				{
					"versionId": "1",
					"lastUpdated": "2015-04-04T18:00:32.393-04:00"
				},

				"extension": 
				[
					{
						"url": "http://fhir.orionhealth.com/ciEncounter",
						"valueReference": 
						{
							"reference": "Encounter/dh1428184856088"
						}
					}
				],

				"text": 
				{
					"div": "<div>Date:2015-04-05T10:00:56+12:00</div>"
				},

				"patient": 
				{
					"reference": "Patient/1702",
					"display": "Eve Everywoman "
				},

				"status": "completed",
				"date": "2015-04-05T10:00:56+12:00",
				"description": "ts"
			},

			"search": 
			{
				"mode": "match"
			}
		},

		{
			"request": 
			{
				"method": "POST"
			},

			"resource": 
			{
				"resourceType": "ClinicalImpression",
				"id": "20454",
				"meta": 
				{
					"versionId": "1",
					"lastUpdated": "2015-04-04T19:45:21.238-04:00"
				},

				"extension": 
				[
					{
						"url": "http://fhir.orionhealth.com/ciEncounter",
						"valueReference": 
						{
							"reference": "Encounter/dh1428191144337"
						}
					}
				],

				"text": 
				{
					"div": "<div>Date:2015-04-05T11:45:44+12:00</div>"
				},

				"patient": 
				{
					"reference": "Patient/1702",
					"display": "Eve Everywoman "
				},

				"status": "completed",
				"date": "2015-04-05T11:45:44+12:00",
				"description": "A new note in a new encounter"
			},

			"search": 
			{
				"mode": "match"
			}
		},

		{
			"request": 
			{
				"method": "POST"
			},

			"resource": 
			{
				"resourceType": "Encounter",
				"id": "dh1428180527120",
				"meta": 
				{
					"versionId": "1",
					"lastUpdated": "2015-04-04T16:48:24.135-04:00"
				},

				"text": 
				{
					
				},

				"patient": 
				{
					"reference": "Patient/1702"
				}
			},

			"search": 
			{
				"mode": "match"
			}
		},

		{
			"request": 
			{
				"method": "POST"
			},

			"resource": 
			{
				"resourceType": "ClinicalImpression",
				"id": "20448",
				"meta": 
				{
					"versionId": "1",
					"lastUpdated": "2015-04-04T16:44:44.280-04:00"
				},

				"extension": 
				[
					{
						"url": "http://fhir.orionhealth.com/ciEncounter",
						"valueReference": 
						{
							"reference": "Encounter/dh1428180307262"
						}
					}
				],

				"text": 
				{
					
				},

				"patient": 
				{
					"reference": "Patient/1702",
					"display": "Eve Everywoman "
				},

				"status": "completed",
				"description": "test"
			},

			"search": 
			{
				"mode": "match"
			}
		},

		{
			"request": 
			{
				"method": "POST"
			},

			"resource": 
			{
				"resourceType": "Encounter",
				"id": "dh1428184856088",
				"meta": 
				{
					"versionId": "1",
					"lastUpdated": "2015-04-04T18:00:32.383-04:00"
				},

				"text": 
				{
					"div": "<div>Date:function (a){var b=F(this,a||db.defaultFormat);return this.lang().postformat(b)}</div>"
				},

				"patient": 
				{
					"reference": "Patient/1702"
				}
			},

			"search": 
			{
				"mode": "match"
			}
		},

		{
			"request": 
			{
				"method": "POST"
			},

			"resource": 
			{
				"resourceType": "ClinicalImpression",
				"id": "20450",
				"meta": 
				{
					"versionId": "1",
					"lastUpdated": "2015-04-04T16:48:24.169-04:00"
				},

				"extension": 
				[
					{
						"url": "http://fhir.orionhealth.com/ciEncounter",
						"valueReference": 
						{
							"reference": "Encounter/dh1428180527120"
						}
					}
				],

				"text": 
				{
					
				},

				"patient": 
				{
					"reference": "Patient/1702",
					"display": "Eve Everywoman "
				},

				"status": "completed",
				"description": "Another test"
			},

			"search": 
			{
				"mode": "match"
			}
		},

		{
			"request": 
			{
				"method": "POST"
			},

			"resource": 
			{
				"resourceType": "Observation",
				"id": "20393",
				"meta": 
				{
					"versionId": "1",
					"lastUpdated": "2015-04-02T16:13:10.692-04:00"
				},

				"text": 
				{
					"status": "generated",
					"div": "<div xmlns=\"http://www.w3.org/1999/xhtml\">Alcohol 30 days decided to stop final </div>"
				},

				"valueString": "decided to stop",
				"status": "final",
				"subject": 
				{
					"reference": "Patient/1702",
					"display": "Eve Everywoman "
				}
			},

			"search": 
			{
				"mode": "match"
			}
		},

		{
			"request": 
			{
				"method": "POST"
			},

			"resource": 
			{
				"resourceType": "Observation",
				"id": "20392",
				"meta": 
				{
					"versionId": "1",
					"lastUpdated": "2015-04-02T16:07:26.345-04:00"
				},

				"text": 
				{
					"status": "generated",
					"div": "<div xmlns=\"http://www.w3.org/1999/xhtml\">Alcohol 30 days 2 bottle wine final </div>"
				},

				"valueString": "2 bottle wine",
				"status": "final",
				"subject": 
				{
					"reference": "Patient/1702",
					"display": "Eve Everywoman "
				}
			},

			"search": 
			{
				"mode": "match"
			}
		},

		{
			"request": 
			{
				"method": "POST"
			},

			"resource": 
			{
				"resourceType": "Condition",
				"id": "20443",
				"meta": 
				{
					"versionId": "1",
					"lastUpdated": "2015-04-03T22:56:49.886-04:00"
				},

				"text": 
				{
					"status": "generated",
					"div": "<div xmlns=\"http://www.w3.org/1999/xhtml\">pharyngitis working </div>"
				},

				"patient": 
				{
					"reference": "Patient/1702",
					"display": "Eve Everywoman "
				},

				"code": 
				{
					"coding": 
					[
						{
							"system": "http://loinc.org",
							"code": "28397-8",
							"display": "pharyngitis"
						}
					],

					"text": "pharyngitis"
				}
			}
		}
	]
}