{
	"resourceType": "Bundle",
	"id": "bundle-mmr-single",
	"type": "transaction",
	"entry": [
		{
			"resource": {
				"resourceType": "ValueSet",
				"id": "mmr-vaccine-codes",
				"url": "http://hl7.org/fhir/ValueSet/mmr-vaccine-codes",
				"version": "4.0.1",
				"status": "active",
				"experimental": false,
				"date": "2019-11-01T09:29:23+11:00",
				"compose": {
					"include": [
						{
							"system": "http://hl7.org/fhir/sid/cvx",
							"concept": [
								{
									"code": "03",
									"display": "MMR"
								},
								{
									"code": "94",
									"display": "MMRV"
								}
							]
						},  {
                        "system": "urn:oid:1.2.36.1.2001.1005.17",
                        "concept": [
                          {
                            "code": "MMR",
                            "display": "MMR"
                          },
                          {
                            "code": "MMRCSL",
                            "display": "MMR II"
                          }
                        ]
                      }
					]
				}
			},
			"request": {
				"method": "PUT",
				"url": "ValueSet/mmr-vaccine-codes"
			}
		},
		{
			"resource": {
			"resourceType": "Practitioner",
			"id": "dreric",
			"name": [
				{
					"use": "official",
					"family": "van den broek",
					"given": [
						"Eric"
					],
					"suffix": [
						"MD"
					]
				}
			],
			"telecom": [
				{
					"system": "phone",
					"value": "0205568263",
					"use": "work"
				},
				{
					"system": "email",
					"value": "E.M.vandenbroek@bmc.nl",
					"use": "work"
				},
				{
					"system": "fax",
					"value": "0205664440",
					"use": "work"
				}
			],
			"address": [
				{
					"use": "work",
					"line": [
						"Galapagosweg 91"
					],
					"city": "Den Burg",
					"postalCode": "9105 PZ",
					"country": "NLD"
				}
			],
			"gender": "male",
			"birthDate": "1975-12-07"
		},
			"request":
			{
				"method": "PUT",
				"url": "Practitioner/dreric"
			}
		},
		{
			"resource": {
				"resourceType": "Practitioner",
				"id": "drfrank",
				"name": [
					{
						"use": "official",
						"family": "Doc",
						"given": [
							"Frank"
						],
						"suffix": [
							"MD"
						]
					}
				],
				"telecom": [
					{
						"system": "phone",
						"value": "02045668263",
						"use": "work"
					},
					{
						"system": "email",
						"value": "frank@bmc.nl",
						"use": "work"
					}
				],
				"address": [
					{
						"use": "work",
						"line": [
							"Galapagosweg 91"
						],
						"city": "Den Burg",
						"postalCode": "9105 PZ",
						"country": "NLD"
					}
				],
				"gender": "male",
				"birthDate": "1989-01-11"
			},
			"request":
			{
				"method": "PUT",
				"url": "Practitioner/drfrank"
			}
		},
		{
			"resource": {
				"resourceType": "Patient",
				"id": "mmrVaccinatedPatient",
				"name": [
					{
						"family": "Morrow",
						"given": [
							"Isaac"
						]
					}
				],
				"gender": "male",
				"birthDate": "1955-11-05",
				"generalPractitioner":  {
					"reference": "Practitioner/dreric"
				}
			},
			"request": {
				"method": "PUT",
				"url": "Patient/mmrVaccinatedPatient"
			}
		},
		{
			"resource": {
				"resourceType": "Patient",
				"id": "notMMRVaccinatedPatient",
				"name": [
					{
						"family": "Wills",
						"given": [
							"Eira"
						]
					}
				],
				"gender": "female",
				"generalPractitioner":  {
					"reference": "Practitioner/drfrank"
				},
				"birthDate": "2001-05-22"
			},
			"request": {
				"method": "PUT",
				"url": "Patient/notMMRVaccinatedPatient"
			}
		},
		{
			"resource": {
				"resourceType": "Immunization",
				"status": "completed",
				"vaccineCode": {
					"coding": [
						{
							"system": "http://hl7.org/fhir/sid/cvx",
							"code": "03",
							"display": "MMR"
						}
					],
					"text": "MMR according to http://hl7.org/fhir/valueset-vaccine-code.html"
				},
				"patient": {
					"reference": "Patient/mmrVaccinatedPatient"
				},
				"occurrenceDateTime": "2017-04-25"
			},
			"request": {
				"method": "POST",
				"url": "Immunization"
			}
		},
      {
        "resource": {
          "resourceType": "Immunization",
          "status": "completed",
          "vaccineCode": {
            "coding": [
              {
                "system": "urn:oid:1.2.36.1.2001.1005.17",
                "code": "Pe",
                "display": "Pertussis"
              }
            ],
            "text": "MMR according to http://hl7.org/fhir/valueset-vaccine-code.html"
          },
          "patient": {
            "reference": "Patient/notMMRVaccinatedPatient"
          },
          "occurrenceDateTime": "2019-01-02"
        },
        "request": {
          "method": "POST",
          "url": "Immunization"
        }
      },

      {
        "resource": {
          "resourceType": "Patient",
          "id": "notAtAllVaccinatedPatient",
          "name": [
            {
              "family": "Lee",
              "given": [
                "Jane"
              ]
            }
          ],
          "gender": "female",
          "birthDate": "2021-12-08",
			"generalPractitioner":  {
				"reference": "Practitioner/dreric"
			}
		  },
        "request": {
          "method": "PUT",
          "url": "Patient/notAtAllVaccinatedPatient"
        }
      },

		{
			"resource": {
				"resourceType": "Measure",
				"id": "mmrImmunizationMeasure",
				"name": "mmrImmunizationMeasure",
				"title": "Is immunized for MMR",
				"status": "active",
				"group": [
					{
						"id": "group-1",
						"population": [
							{
								"code": {
									"coding": [
										{
											"system": "http://terminology.hl7.org/CodeSystem/measure-population",
											"code": "initial-population",
											"display": "Initial Population"
										}
									]
								},
								"criteria": {
									"language": "text/cql",
									"expression": "InitialPopulation"
								}
							},
							{
								"code": {
									"coding": [
										{
											"system": "http://terminology.hl7.org/CodeSystem/measure-population",
											"code": "numerator",
											"display": "Numerator"
										}
									]
								},
								"criteria": {
									"language": "text/cql",
									"expression": "Numerator"
								}
							},
							{
								"code": {
									"coding": [
										{
											"system": "http://terminology.hl7.org/CodeSystem/measure-population",
											"code": "denominator",
											"display": "Denominator"
										}
									]
								},
								"criteria": {
									"language": "text/cql",
									"expression": "Denominator"
								}
							}
						]
					}
				],
				"relatedArtifact": [
					{
						"type": "depends-on",
						"resource": "Library/library-FHIRHelpers-4.0.1"
					}
				],
				"scoring": {
					"coding": [
						{
							"code": "ratio"
						}
					]
				},
				"library": [
					"Library/immunizationCQLLibrary"
				]
			},
			"request": {
				"method": "PUT",
				"url": "Measure/mmrImmunizationMeasure"
			}
		},
      {
        "resource": {
          "resourceType": "MeasureReport",
          "identifier":
          [
            {
              "value": "measureReportSummary"
            }
          ],
          "status": "complete",
          "type": "summary",
          "measure": "Measure/mmrImmunizationMeasure",
          "date": "2014-04-01",
          "period": {
            "start": "2014-01-01",
            "end": "2014-03-31"
          }
        },
        "request": {
          "method": "POST",
          "url": "MeasureReport"
        }
      },
		{
			"resource": {
				"resourceType": "Library",
				"id": "immunizationCQLLibrary",
				"name": "immunizationCQLLibrary",
				"status": "active",
				"relatedArtifact": [
					{
						"type": "depends-on",
						"resource": "http://hl7.org/fhir/Library/FHIRHelpers|4.0.1"
					}
				],
				"type": {
					"coding": [
						{
							"system": "http://terminology.hl7.org/CodeSystem/library-type",
							"code": "logic-library"
						}
					]
				},
				"parameter": [
					{
						"name": "InitialPopulation",
						"use": "out",
						"min": 0,
						"max": "*",
						"type": "Patient"
					},
					{
						"name": "Denominator",
						"use": "out",
						"min": 0,
						"max": "*",
						"type": "Patient"
					},
					{
						"name": "Numerator",
						"use": "out",
						"min": 0,
						"max": "*",
						"type": "Patient"
					}
				],
				"dataRequirement": [
					{
						"type": "Patient",
						"profile": [
							"http://hl7.org/fhir/StructureDefinition/Patient"
						]
					}
				],
				"content": [
					{
						"contentType": "text/cql",
						"data": "This will be automatically replaced with a specified CQL content as part of the testing helper functions. If it is not being replaced with proper CQL content, there is something wrong with the bundle manipulating function 'loadBundleFromFileLocationAndManipulate'. "
					}
				]
			},
			"request": {
				"method": "PUT",
				"url": "Library/immunizationCQLLibrary"
			}
		},
		{
			"resource": {
				"resourceType": "Library",
				"id": "library-FHIRHelpers-4.0.1",
				"extension": [
					{
						"url": "http://hl7.org/fhir/us/cqfmeasures/StructureDefinition/cqfm-softwaresystem",
						"valueReference": {
							"reference": "#cqf-tooling"
						}
					}
				],
				"url": "http://hl7.org/fhir/Library/FHIRHelpers",
				"version": "4.0.1",
				"name": "FHIRHelpers",
				"status": "active",
				"experimental": true,
				"type": {
					"coding": [
						{
							"system": "http://terminology.hl7.org/CodeSystem/library-type",
							"code": "logic-library"
						}
					]
				},
				"relatedArtifact": [
					{
						"type": "depends-on",
						"resource": "http://hl7.org/fhir/Library/FHIR-ModelInfo|4.0.1"
					}
				],
				"content": [
					{
						"contentType": "text/cql",
						"data": ""
					},
					{
						"contentType": "application/elm+xml",
						"data": ""
					},
					{
						"contentType": "application/elm+json",
						"data": ""
					}
				]
			},
			"request": {
				"method": "PUT",
				"url": "Library/library-FHIRHelpers-4.0.1"
			}
		}
	]
}
