{
  "resourceType": "Bundle",
  "id": "EXM125-7.3.000-bundle",
  "type": "transaction",
  "entry": [ {
    "resource": {
      "resourceType": "ValueSet",
      "id": "2.16.840.1.114222.4.11.836",
      "url": "http://cts.nlm.nih.gov/fhir/ValueSet/2.16.840.1.114222.4.11.836",
      "identifier": [ {
        "system": "urn:ietf:rfc:3986",
        "value": "2.16.840.1.114222.4.11.836"
      } ],
      "version": "20121025",
      "name": "Race",
      "title": "Race",
      "status": "active",
      "publisher": "NLM",
      "compose": {
        "include": [ {
          "system": "http://www.cdc.gov/phin/resources/vocabulary/index.html",
          "version": "1.2",
          "concept": [ {
            "code": "1002-5",
            "display": "American Indian or Alaska Native"
          }, {
            "code": "2028-9",
            "display": "Asian"
          }, {
            "code": "2054-5",
            "display": "Black or African American"
          }, {
            "code": "2076-8",
            "display": "Native Hawaiian or Other Pacific Islander"
          }, {
            "code": "2106-3",
            "display": "White"
          }, {
            "code": "2131-1",
            "display": "Other Race"
          } ]
        } ]
      }
    },
    "request": {
      "method": "PUT",
      "url": "ValueSet/2.16.840.1.114222.4.11.836"
    }
  }, {
    "resource": {
      "resourceType": "ValueSet",
      "id": "2.16.840.1.114222.4.11.837",
      "url": "http://cts.nlm.nih.gov/fhir/ValueSet/2.16.840.1.114222.4.11.837",
      "identifier": [ {
        "system": "urn:ietf:rfc:3986",
        "value": "2.16.840.1.114222.4.11.837"
      } ],
      "version": "20121025",
      "name": "Ethnicity",
      "title": "Ethnicity",
      "status": "active",
      "publisher": "NLM",
      "compose": {
        "include": [ {
          "system": "http://www.cdc.gov/phin/resources/vocabulary/index.html",
          "version": "1.2",
          "concept": [ {
            "code": "2135-2",
            "display": "Hispanic or Latino"
          }, {
            "code": "2186-5",
            "display": "Not Hispanic or Latino"
          } ]
        } ]
      }
    },
    "request": {
      "method": "PUT",
      "url": "ValueSet/2.16.840.1.114222.4.11.837"
    }
  }, {
    "resource": {
      "resourceType": "Measure",
      "id": "measure-EXM125-7.3.000",
      "meta": {
        "profile": [ "http://hl7.org/fhir/us/cqfmeasures/StructureDefinition/proportion-measure-cqfm" ]
      },
      "extension": [ {
        "url": "http://hl7.org/fhir/us/cqfmeasures/StructureDefinition/cqfm-populationBasis",
        "valueCode": "boolean"
      }, {
        "url": "http://hl7.org/fhir/us/cqfmeasures/StructureDefinition/cqfm-softwaresystem",
        "valueReference": {
          "reference": "#cqf-tooling"
        }
      } ],
      "url": "http://hl7.org/fhir/us/cqfmeasures/Measure/EXM125",
      "identifier": [ {
        "use": "official",
        "system": "http://hl7.org/fhir/cqi/ecqm/Measure/Identifier/cms",
        "value": "125"
      }, {
        "use": "official",
        "system": "http://hl7.org/fhir/cqi/ecqm/Measure/Identifier/nqf",
        "value": "2372"
      } ],
      "version": "7.3.000",
      "name": "EXM125",
      "title": "Breast Cancer Screening",
      "status": "active",
      "experimental": true,
      "date": "2018-08-31",
      "publisher": "National Committee for Quality Assurance",
      "contact": [ {
        "telecom": [ {
          "system": "url",
          "value": "http://www.ncqa.org/"
        } ]
      } ],
      "description": "Percentage of women 50-74 years of age who had a mammogram to screen for breast cancer",
      "useContext": [ {
        "code": {
          "code": "program"
        },
        "valueCodeableConcept": {
          "text": "eligible-provider"
        }
      } ],
      "jurisdiction": [ {
        "coding": [ {
          "system": "urn:iso:std:iso:3166",
          "code": "US"
        } ]
      } ],
      "purpose": "Women 51-74 years of age with a visit during the measurement period",
      "copyright": "This Physician Performance Measure (Measure) and related data specifications were developed by the National Committee for Quality Assurance (NCQA). NCQA is not responsible for any use of the Measure. NCQA makes no representations, warranties, or endorsement about the quality of any organization or physician that uses or reports performance measures and NCQA has no liability to anyone who relies on such measures or specifications. NCQA holds a copyright in the Measure. The Measure can be reproduced and distributed, without modification, for noncommercial purposes (eg, use by healthcare providers in connection with their practices) without obtaining approval from NCQA. Commercial use is defined as the sale, licensing, or distribution of the Measure for commercial gain, or incorporation of the Measure into a product or service that is sold, licensed or distributed for commercial gain. All commercial uses or requests for modification must be approved by NCQA and are subject to a license at the discretion of NCQA. (C) 2012-2017 National Committee for Quality Assurance. All Rights Reserved. Limited proprietary coding is contained in the Measure specifications for user convenience. Users of proprietary code sets should obtain all necessary licenses from the owners of the code sets. NCQA disclaims all liability for use or accuracy of any third party codes contained in the specifications. CPT(R) contained in the Measure specifications is copyright 2004-2017 American Medical Association. LOINC(R) copyright 2004-2017 Regenstrief Institute, Inc. This material contains SNOMED Clinical Terms(R) (SNOMED CT[R] ) copyright 2004-2017 International Health Terminology Standards Development Organisation. ICD-10 copyright 2017 World Health Organization. All Rights Reserved.",
      "approvalDate": "2016-01-01",
      "lastReviewDate": "2016-09-01",
      "effectivePeriod": {
        "start": "2019-01-01",
        "end": "2019-12-31"
      },
      "topic": [ {
        "coding": [ {
          "system": "http://loinc.org",
          "code": "57024-2",
          "display": "Health Quality Measure Document"
        } ]
      } ],
      "relatedArtifact": [ {
        "type": "citation",
        "citation": "American Cancer Society. 2010. Cancer Facts & Figures 2010. Atlanta: American Cancer Society."
      }, {
        "type": "citation",
        "citation": "National Cancer Institute. 2010. \"Breast Cancer Screening.\" http://www.cancer.gov/cancertopics/pdq/screening/breast/healthprofessional"
      }, {
        "type": "citation",
        "citation": "National Business Group on Health. 2011. Pathways to Managing Cancer in the Workplace. Washington: National Business Group on Health."
      }, {
        "type": "citation",
        "citation": "U.S. Preventive Services Task Force (USPSTF). 2009. 1) \"Screening for breast cancer: U.S. Preventive Services Task Force recommendation statement.\" 2) \"December 2009 addendum.\" Ann Intern Med 151(10):716-726."
      }, {
        "type": "citation",
        "citation": "BreastCancer.org. 2012. U.S. Breast Cancer Statistics. www.breastcancer.org/symptoms/understand_bc/statistics.jsp"
      }, {
        "type": "depends-on",
        "resource": "Library/library-FHIRHelpers-4.0.1"
      }, {
        "type": "depends-on",
        "resource": "Library/library-Hospice-2.0.000"
      }, {
        "type": "depends-on",
        "resource": "Library/library-AdultOutpatientEncounters-2.0.000"
      }, {
        "type": "depends-on",
        "resource": "Library/library-MATGlobalCommonFunctions-5.0.000"
      }, {
        "type": "depends-on",
        "resource": "Library/library-SupplementalDataElements-2.0.0"
      } ],
      "library": [ "Library/library-EXM125-7.3.000" ],
      "disclaimer": "The performance Measure is not a clinical guideline and does not establish a standard of medical care, and has not been tested for all potential applications. THE MEASURE AND SPECIFICATIONS ARE PROVIDED \"AS IS\" WITHOUT WARRANTY OF ANY KIND. Due to technical limitations, registered trademarks are indicated by (R) or [R] and unregistered trademarks are indicated by (TM) or [TM].",
      "scoring": {
        "coding": [ {
          "system": "http://hl7.org/fhir/measure-scoring",
          "code": "proportion"
        } ]
      },
      "type": [ {
        "coding": [ {
          "system": "http://hl7.org/fhir/measure-type",
          "code": "process"
        } ]
      } ],
      "rationale": "Breast cancer is one of the most common types of cancers, accounting for a quarter of all new cancer diagnoses for women in the U.S. (BreastCancer.Org, 2011). It ranks as the second leading cause of cancer-related mortality in women, accounting for nearly 40,000 estimated deaths in 2013 (American Cancer Society, 2011). <br> According to the National Cancer Institute's Surveillance Epidemiology and End Results program, the chance of a woman being diagnosed with breast cancer in a given year increases with age. By age 30, it is one in 2,212. By age 40, the chances increase to one in 235, by age 50, it becomes one in 54, and, by age 60, it is one in 25. From 2004 to 2008, the median age at the time of breast cancer diagnosis was 61 years among adult women (Tangka et al, 2010). <br> In the U.S., costs associated with a diagnosis of breast cancer range from $451 to $2,520, factoring in continued testing, multiple office visits, and varying procedures. The total costs related to breast cancer add up to nearly $7 billion per year in the U.S., including $2 billion spent on late-stage treatment (Lavigne et al, 2008; Boykoff et al, 2009).",
      "clinicalRecommendationStatement": "The U.S. Preventive Services Task Force (USPSTF) recommends biennial screening mammography for women aged 50-74 years (B recommendation). The decision to start regular, biennial screening mammography before the age of 50 years should be an individual one and take patient context into account, including the patient's values regarding specific benefits and harms (C recommendation). The Task Force concludes the evidence is insufficient to assess the additional benefits and harms of screening mammography in women 75 years and older (I statement). <br> U.S. Preventive Services Task Force (2009) <br> Grade: B recommendation. The USPSTF recommends biennial screening mammography for women aged 50 to 74 years. <br> Grade: C recommendation. The decision to start regular, biennial screening mammography before the age of 50 years should be an individual one and take patient context into account, including the patient's values regarding specific benefits and harms. <br> Grade: I Statement. The USPSTF concludes that the current evidence is insufficient to assess the additional benefits and harms of screening mammography in women 75 years or older. <br> Grade: D recommendation. The USPSTF recommends against teaching breast self-examination (BSE). <br> Grade: I Statement. The USPSTF concludes that the current evidence is insufficient to assess the additional benefits and harms of clinical breast examination (CBE) beyond screening mammography in women 40 years or older. <br> Grade: I Statement. The USPSTF concludes that the current evidence is insufficient to assess the additional benefits and harms of either digital mammography or magnetic resonance imaging (MRI) instead of film mammography as screening modalities for breast cancer.",
      "improvementNotation": {
        "coding": [ {
          "system": "http://terminology.hl7.org/CodeSystem/measure-improvement-notation",
          "code": "increase"
        } ]
      },
      "guidance": "Patient self-report for procedures as well as diagnostic studies should be recorded in 'Procedure, Performed' template or 'Diagnostic Study, Performed' template in QRDA-1. Patient self-report is not allowed for laboratory tests. <br> This measure evaluates primary screening. Do not count biopsies, breast ultrasounds, MRIs or tomosynthesis (3D mammography), because they are not appropriate methods for primary breast cancer screening.",
      "group": [ {
        "id": "group-1",
        "population": [ {
          "code": {
            "coding": [ {
              "system": "http://terminology.hl7.org/CodeSystem/measure-population",
              "code": "initial-population",
              "display": "Initial Population"
            } ]
          },
          "criteria": {
            "language": "text/cql",
            "expression": "Initial Population"
          }
        }, {
          "code": {
            "coding": [ {
              "system": "http://terminology.hl7.org/CodeSystem/measure-population",
              "code": "numerator",
              "display": "Numerator"
            } ]
          },
          "criteria": {
            "language": "text/cql",
            "expression": "Numerator"
          }
        }, {
          "code": {
            "coding": [ {
              "system": "http://terminology.hl7.org/CodeSystem/measure-population",
              "code": "denominator",
              "display": "Denominator"
            } ]
          },
          "criteria": {
            "language": "text/cql",
            "expression": "Denominator"
          }
        }, {
          "code": {
            "coding": [ {
              "system": "http://terminology.hl7.org/CodeSystem/measure-population",
              "code": "denominator-exclusion",
              "display": "Denominator Exclusion"
            } ]
          },
          "criteria": {
            "language": "text/cql",
            "expression": "Denominator Exclusion"
          }
        } ]
      } ],
      "supplementalData": [ {
        "code": {
          "text": "sde-ethnicity"
        },
        "usage": [ {
          "coding": [ {
            "system": "http://hl7.org/fhir/measure-data-usage",
            "code": "supplemental-data"
          } ]
        } ],
        "criteria": {
          "language": "text/cql",
          "expression": "SDE Ethnicity"
        }
      }, {
        "code": {
          "text": "sde-payer"
        },
        "usage": [ {
          "coding": [ {
            "system": "http://hl7.org/fhir/measure-data-usage",
            "code": "supplemental-data"
          } ]
        } ],
        "criteria": {
          "language": "text/cql",
          "expression": "SDE Payer"
        }
      }, {
        "code": {
          "text": "sde-race"
        },
        "usage": [ {
          "coding": [ {
            "system": "http://hl7.org/fhir/measure-data-usage",
            "code": "supplemental-data"
          } ]
        } ],
        "criteria": {
          "language": "text/cql",
          "expression": "SDE Race"
        }
      }, {
        "code": {
          "text": "sde-sex"
        },
        "usage": [ {
          "coding": [ {
            "system": "http://hl7.org/fhir/measure-data-usage",
            "code": "supplemental-data"
          } ]
        } ],
        "criteria": {
          "language": "text/cql",
          "expression": "SDE Sex"
        }
      } ]
    },
    "request": {
      "method": "PUT",
      "url": "Measure/measure-EXM125-7.3.000"
    }
  }, {
    "resource": {
      "resourceType": "ValueSet",
      "id": "2.16.840.1.113883.3.464.1003.198.12.1020",
      "url": "http://cts.nlm.nih.gov/fhir/ValueSet/2.16.840.1.113883.3.464.1003.198.12.1020",
      "identifier": [ {
        "system": "urn:ietf:rfc:3986",
        "value": "2.16.840.1.113883.3.464.1003.198.12.1020"
      } ],
      "version": "20171216",
      "name": "UnilateralMastectomy",
      "title": "Unilateral Mastectomy",
      "status": "active",
      "publisher": "NLM",
      "compose": {
        "include": [ {
          "system": "http://www.ama-assn.org/go/cpt",
          "version": "2006",
          "concept": [ {
            "code": "19180",
            "display": "Mastectomy, simple, complete"
          }, {
            "code": "19200",
            "display": "Mastectomy, radical, including pectoral muscles, axillary lymph nodes"
          }, {
            "code": "19220",
            "display": "Mastectomy, radical, including pectoral muscles, axillary and internal mammary lymph nodes (Urban type operation)"
          }, {
            "code": "19240",
            "display": "Mastectomy, modified radical, including axillary lymph nodes, with or without pectoralis minor muscle, but excluding pectoralis major muscle"
          } ]
        }, {
          "system": "http://www.ama-assn.org/go/cpt",
          "version": "2018",
          "concept": [ {
            "code": "19303",
            "display": "Mastectomy, simple, complete"
          }, {
            "code": "19304",
            "display": "Mastectomy, subcutaneous"
          }, {
            "code": "19305",
            "display": "Mastectomy, radical, including pectoral muscles, axillary lymph nodes"
          }, {
            "code": "19306",
            "display": "Mastectomy, radical, including pectoral muscles, axillary and internal mammary lymph nodes (Urban type operation)"
          }, {
            "code": "19307",
            "display": "Mastectomy, modified radical, including axillary lymph nodes, with or without pectoralis minor muscle, but excluding pectoralis major muscle"
          } ]
        }, {
          "system": "http://snomed.info/sct",
          "version": "2017-09",
          "concept": [ {
            "code": "287654001",
            "display": "Extended simple mastectomy (procedure)"
          } ]
        }, {
          "system": "http://snomed.info/sct",
          "version": "2018-03",
          "concept": [ {
            "code": "12275171000119105",
            "display": "Postmastectomy lymphedema syndrome of right upper limb (disorder)"
          }, {
            "code": "12275221000119100",
            "display": "Postmastectomy lymphedema syndrome of left upper limb (disorder)"
          }, {
            "code": "172043006",
            "display": "Simple mastectomy (procedure)"
          }, {
            "code": "237367009",
            "display": "Total mastectomy and division of pectoralis minor muscle (procedure)"
          }, {
            "code": "237368004",
            "display": "Total mastectomy and excision of part of pectoral muscles and chest wall (procedure)"
          }, {
            "code": "237385002",
            "display": "Excision of mastectomy scar (procedure)"
          }, {
            "code": "237388000",
            "display": "Biopsy of mastectomy scar (procedure)"
          }, {
            "code": "274957008",
            "display": "Radical mastectomy including axillary lymph nodes (procedure)"
          }, {
            "code": "287653007",
            "display": "Subcutaneous mastectomy and prosthetic implant (procedure)"
          }, {
            "code": "303690008",
            "display": "Excisional biopsy of mastectomy scar (procedure)"
          }, {
            "code": "307995002",
            "display": "Excision of lesion of mastectomy scar (procedure)"
          }, {
            "code": "318190001",
            "display": "Mastectomy with preservation of skin and nipple with synchronous implant (procedure)"
          }, {
            "code": "33129002",
            "display": "Postmastectomy lymphedema syndrome (disorder)"
          }, {
            "code": "359728003",
            "display": "Radical mastectomy including pectoral muscles and axillary lymph nodes (procedure)"
          }, {
            "code": "359731002",
            "display": "Urban operation, extended radical mastectomy (procedure)"
          }, {
            "code": "359734005",
            "display": "Halsted mastectomy (procedure)"
          }, {
            "code": "359740003",
            "display": "Extended radical mastectomy (procedure)"
          }, {
            "code": "384723003",
            "display": "Radical mastectomy (procedure)"
          }, {
            "code": "395702000",
            "display": "Patey total mastectomy (procedure)"
          }, {
            "code": "406505007",
            "display": "Modified radical mastectomy (procedure)"
          }, {
            "code": "428564008",
            "display": "Skin sparing mastectomy (procedure)"
          }, {
            "code": "428571003",
            "display": "Mastectomy of left breast (procedure)"
          }, {
            "code": "429400009",
            "display": "Mastectomy of right breast (procedure)"
          }, {
            "code": "446109005",
            "display": "Simple mastectomy with excision of axillary lymph nodes (procedure)"
          }, {
            "code": "446420001",
            "display": "Simple mastectomy with complete axillary lymphadenectomy (procedure)"
          }, {
            "code": "447135002",
            "display": "Simple mastectomy with axillary lymph node sampling (procedure)"
          }, {
            "code": "447421006",
            "display": "Prophylactic mastectomy (procedure)"
          }, {
            "code": "451201000124106",
            "display": "Prophylactic mastectomy of right breast (procedure)"
          }, {
            "code": "451211000124109",
            "display": "Prophylactic mastectomy of left breast (procedure)"
          }, {
            "code": "66398006",
            "display": "Mastectomy with excision of regional lymph nodes (procedure)"
          }, {
            "code": "70183006",
            "display": "Subcutaneous mastectomy (procedure)"
          }, {
            "code": "714111001",
            "display": "Post-mastectomy breast deformity (disorder)"
          }, {
            "code": "714252004",
            "display": "Post-mastectomy chronic pain syndrome (disorder)"
          }, {
            "code": "726429001",
            "display": "Radical mastectomy of left breast (procedure)"
          }, {
            "code": "726430006",
            "display": "Radical mastectomy of right breast (procedure)"
          }, {
            "code": "726434002",
            "display": "Subcutaneous mastectomy of right breast (procedure)"
          }, {
            "code": "726435001",
            "display": "Subcutaneous mastectomy of left breast (procedure)"
          }, {
            "code": "726436000",
            "display": "Modified radical mastectomy of right breast (procedure)"
          }, {
            "code": "726437009",
            "display": "Modified radical mastectomy of left breast (procedure)"
          } ]
        } ]
      }
    },
    "request": {
      "method": "PUT",
      "url": "ValueSet/2.16.840.1.113883.3.464.1003.198.12.1020"
    }
  }, {
    "resource": {
      "resourceType": "Library",
      "id": "library-EXM125-7.3.000",
      "extension": [ {
        "url": "http://hl7.org/fhir/us/cqfmeasures/StructureDefinition/cqfm-softwaresystem",
        "valueReference": {
          "reference": "#cqf-tooling"
        }
      } ],
      "url": "http://fhir.org/guides/dbcg/connectathon/Library/EXM125",
      "version": "7.3.000",
      "name": "EXM125",
      "status": "active",
      "experimental": true,
      "type": {
        "coding": [ {
          "system": "http://terminology.hl7.org/CodeSystem/library-type",
          "code": "logic-library"
        } ]
      },
      "relatedArtifact": [ {
        "type": "depends-on",
        "resource": "http://hl7.org/fhir/Library/FHIR-ModelInfo|4.0.1"
      }, {
        "type": "depends-on",
        "resource": "http://hl7.org/fhir/Library/FHIRHelpers|4.0.1"
      }, {
        "type": "depends-on",
        "resource": "http://fhir.org/guides/dbcg/connectathon/Library/Hospice|2.0.000"
      }, {
        "type": "depends-on",
        "resource": "http://fhir.org/guides/dbcg/connectathon/Library/AdultOutpatientEncounters|2.0.000"
      }, {
        "type": "depends-on",
        "resource": "http://fhir.org/guides/dbcg/connectathon/Library/MATGlobalCommonFunctions|5.0.000"
      }, {
        "type": "depends-on",
        "resource": "http://fhir.org/guides/dbcg/connectathon/Library/SupplementalDataElements|2.0.0"
      }, {
        "type": "depends-on",
        "resource": "http://cts.nlm.nih.gov/fhir/ValueSet/2.16.840.1.113762.1.4.1"
      }, {
        "type": "depends-on",
        "resource": "http://cts.nlm.nih.gov/fhir/ValueSet/2.16.840.1.114222.4.11.836"
      }, {
        "type": "depends-on",
        "resource": "http://cts.nlm.nih.gov/fhir/ValueSet/2.16.840.1.114222.4.11.837"
      }, {
        "type": "depends-on",
        "resource": "http://cts.nlm.nih.gov/fhir/ValueSet/2.16.840.1.114222.4.11.3591"
      }, {
        "type": "depends-on",
        "resource": "http://cts.nlm.nih.gov/fhir/ValueSet/2.16.840.1.113883.3.464.1003.198.12.1005"
      }, {
        "type": "depends-on",
        "resource": "http://cts.nlm.nih.gov/fhir/ValueSet/2.16.840.1.113883.3.560.100.2"
      }, {
        "type": "depends-on",
        "resource": "http://cts.nlm.nih.gov/fhir/ValueSet/2.16.840.1.113883.3.464.1003.108.12.1018"
      }, {
        "type": "depends-on",
        "resource": "http://cts.nlm.nih.gov/fhir/ValueSet/2.16.840.1.113883.3.464.1003.198.12.1020"
      }, {
        "type": "depends-on",
        "resource": "http://cts.nlm.nih.gov/fhir/ValueSet/2.16.840.1.113883.3.464.1003.198.12.1068"
      }, {
        "type": "depends-on",
        "resource": "http://cts.nlm.nih.gov/fhir/ValueSet/2.16.840.1.113883.3.464.1003.198.12.1069"
      }, {
        "type": "depends-on",
        "resource": "http://cts.nlm.nih.gov/fhir/ValueSet/2.16.840.1.113883.3.464.1003.198.12.1070"
      }, {
        "type": "depends-on",
        "resource": "http://cts.nlm.nih.gov/fhir/ValueSet/2.16.840.1.113883.3.464.1003.122.12.1036"
      }, {
        "type": "depends-on",
        "resource": "http://cts.nlm.nih.gov/fhir/ValueSet/2.16.840.1.113883.3.464.1003.122.12.1035"
      }, {
        "type": "depends-on",
        "resource": "http://cts.nlm.nih.gov/fhir/ValueSet/2.16.840.1.113883.3.464.1003.198.12.1071"
      } ],
      "parameter": [ {
        "name": "Measurement Period",
        "use": "in",
        "min": 0,
        "max": "1",
        "type": "Period"
      }, {
        "name": "Patient",
        "use": "out",
        "min": 0,
        "max": "1",
        "type": "Patient"
      }, {
        "name": "SDE Ethnicity",
        "use": "out",
        "min": 0,
        "max": "*",
        "type": "Coding"
      }, {
        "name": "SDE Payer",
        "use": "out",
        "min": 0,
        "max": "*",
        "type": "Any"
      }, {
        "name": "SDE Race",
        "use": "out",
        "min": 0,
        "max": "*",
        "type": "Coding"
      }, {
        "name": "SDE Sex",
        "use": "out",
        "min": 0,
        "max": "1",
        "type": "Coding"
      }, {
        "name": "Initial Population",
        "use": "out",
        "min": 0,
        "max": "1",
        "type": "boolean"
      }, {
        "name": "Denominator",
        "use": "out",
        "min": 0,
        "max": "1",
        "type": "boolean"
      }, {
        "name": "Unilateral Mastectomy Procedure",
        "use": "out",
        "min": 0,
        "max": "*",
        "type": "Procedure"
      }, {
        "name": "Right Mastectomy",
        "use": "out",
        "min": 0,
        "max": "*",
        "type": "Condition"
      }, {
        "name": "Left Mastectomy",
        "use": "out",
        "min": 0,
        "max": "*",
        "type": "Condition"
      }, {
        "name": "History Bilateral Mastectomy",
        "use": "out",
        "min": 0,
        "max": "*",
        "type": "Condition"
      }, {
        "name": "Bilateral Mastectomy Procedure",
        "use": "out",
        "min": 0,
        "max": "*",
        "type": "Procedure"
      }, {
        "name": "Numerator",
        "use": "out",
        "min": 0,
        "max": "1",
        "type": "boolean"
      }, {
        "name": "Denominator Exclusion",
        "use": "out",
        "min": 0,
        "max": "1",
        "type": "boolean"
      } ],
      "dataRequirement": [ {
        "type": "Procedure",
        "profile": [ "http://hl7.org/fhir/StructureDefinition/Procedure" ],
        "codeFilter": [ {
          "path": "code",
          "valueSet": "http://cts.nlm.nih.gov/fhir/ValueSet/2.16.840.1.113883.3.464.1003.198.12.1020"
        } ]
      }, {
        "type": "Condition",
        "profile": [ "http://hl7.org/fhir/StructureDefinition/Condition" ],
        "codeFilter": [ {
          "path": "code",
          "valueSet": "http://cts.nlm.nih.gov/fhir/ValueSet/2.16.840.1.113883.3.464.1003.198.12.1070"
        } ]
      }, {
        "type": "Condition",
        "profile": [ "http://hl7.org/fhir/StructureDefinition/Condition" ],
        "codeFilter": [ {
          "path": "code",
          "valueSet": "http://cts.nlm.nih.gov/fhir/ValueSet/2.16.840.1.113883.3.464.1003.198.12.1071"
        } ]
      }, {
        "type": "Condition",
        "profile": [ "http://hl7.org/fhir/StructureDefinition/Condition" ],
        "codeFilter": [ {
          "path": "code",
          "valueSet": "http://cts.nlm.nih.gov/fhir/ValueSet/2.16.840.1.113883.3.464.1003.198.12.1069"
        } ]
      }, {
        "type": "Condition",
        "profile": [ "http://hl7.org/fhir/StructureDefinition/Condition" ],
        "codeFilter": [ {
          "path": "code",
          "valueSet": "http://cts.nlm.nih.gov/fhir/ValueSet/2.16.840.1.113883.3.464.1003.198.12.1071"
        } ]
      }, {
        "type": "Condition",
        "profile": [ "http://hl7.org/fhir/StructureDefinition/Condition" ],
        "codeFilter": [ {
          "path": "code",
          "valueSet": "http://cts.nlm.nih.gov/fhir/ValueSet/2.16.840.1.113883.3.464.1003.198.12.1068"
        } ]
      }, {
        "type": "Procedure",
        "profile": [ "http://hl7.org/fhir/StructureDefinition/Procedure" ],
        "codeFilter": [ {
          "path": "code",
          "valueSet": "http://cts.nlm.nih.gov/fhir/ValueSet/2.16.840.1.113883.3.464.1003.198.12.1005"
        } ]
      }, {
        "type": "DiagnosticReport",
        "profile": [ "http://hl7.org/fhir/StructureDefinition/DiagnosticReport" ],
        "codeFilter": [ {
          "path": "code",
          "valueSet": "http://cts.nlm.nih.gov/fhir/ValueSet/2.16.840.1.113883.3.464.1003.108.12.1018"
        } ]
      } ],
      "content": [ {
        "contentType": "text/cql",
        "data": ""
      }, {
        "contentType": "application/elm+xml",
        "data": ""
      }, {
        "contentType": "application/elm+json",
        "data": ""
      } ]
    },
    "request": {
      "method": "PUT",
      "url": "Library/library-EXM125-7.3.000"
    }
  }, {
    "resource": {
      "resourceType": "ValueSet",
      "id": "2.16.840.1.113883.3.464.1003.101.12.1016",
      "url": "http://cts.nlm.nih.gov/fhir/ValueSet/2.16.840.1.113883.3.464.1003.101.12.1016",
      "identifier": [ {
        "system": "urn:ietf:rfc:3986",
        "value": "2.16.840.1.113883.3.464.1003.101.12.1016"
      } ],
      "version": "20180310",
      "name": "HomeHealthcareServices",
      "title": "Home Healthcare Services",
      "status": "active",
      "publisher": "NLM",
      "compose": {
        "include": [ {
          "system": "http://www.ama-assn.org/go/cpt",
          "version": "2018",
          "concept": [ {
            "code": "99341",
            "display": "Home visit for the evaluation and management of a new patient, which requires these 3 key components: A problem focused history; A problem focused examination; and Straightforward medical decision making. Counseling and/or coordination of care with other physicians, other qualified health care professionals, or agencies are provided consistent with the nature of the problem(s) and the patient's and/or family's needs. Usually, the presenting problem(s) are of low severity. Typically, 20 minutes are spent face-to-face with the patient and/or family."
          }, {
            "code": "99342",
            "display": "Home visit for the evaluation and management of a new patient, which requires these 3 key components: An expanded problem focused history; An expanded problem focused examination; and Medical decision making of low complexity. Counseling and/or coordination of care with other physicians, other qualified health care professionals, or agencies are provided consistent with the nature of the problem(s) and the patient's and/or family's needs. Usually, the presenting problem(s) are of moderate severity. Typically, 30 minutes are spent face-to-face with the patient and/or family."
          }, {
            "code": "99343",
            "display": "Home visit for the evaluation and management of a new patient, which requires these 3 key components: A detailed history; A detailed examination; and Medical decision making of moderate complexity. Counseling and/or coordination of care with other physicians, other qualified health care professionals, or agencies are provided consistent with the nature of the problem(s) and the patient's and/or family's needs. Usually, the presenting problem(s) are of moderate to high severity. Typically, 45 minutes are spent face-to-face with the patient and/or family."
          }, {
            "code": "99344",
            "display": "Home visit for the evaluation and management of a new patient, which requires these 3 key components: A comprehensive history; A comprehensive examination; and Medical decision making of moderate complexity. Counseling and/or coordination of care with other physicians, other qualified health care professionals, or agencies are provided consistent with the nature of the problem(s) and the patient's and/or family's needs. Usually, the presenting problem(s) are of high severity. Typically, 60 minutes are spent face-to-face with the patient and/or family."
          }, {
            "code": "99345",
            "display": "Home visit for the evaluation and management of a new patient, which requires these 3 key components: A comprehensive history; A comprehensive examination; and Medical decision making of high complexity. Counseling and/or coordination of care with other physicians, other qualified health care professionals, or agencies are provided consistent with the nature of the problem(s) and the patient's and/or family's needs. Usually, the patient is unstable or has developed a significant new problem requiring immediate physician attention. Typically, 75 minutes are spent face-to-face with the patient and/or family."
          }, {
            "code": "99347",
            "display": "Home visit for the evaluation and management of an established patient, which requires at least 2 of these 3 key components: A problem focused interval history; A problem focused examination; Straightforward medical decision making. Counseling and/or coordination of care with other physicians, other qualified health care professionals, or agencies are provided consistent with the nature of the problem(s) and the patient's and/or family's needs. Usually, the presenting problem(s) are self limited or minor. Typically, 15 minutes are spent face-to-face with the patient and/or family."
          }, {
            "code": "99348",
            "display": "Home visit for the evaluation and management of an established patient, which requires at least 2 of these 3 key components: An expanded problem focused interval history; An expanded problem focused examination; Medical decision making of low complexity. Counseling and/or coordination of care with other physicians, other qualified health care professionals, or agencies are provided consistent with the nature of the problem(s) and the patient's and/or family's needs. Usually, the presenting problem(s) are of low to moderate severity. Typically, 25 minutes are spent face-to-face with the patient and/or family."
          }, {
            "code": "99349",
            "display": "Home visit for the evaluation and management of an established patient, which requires at least 2 of these 3 key components: A detailed interval history; A detailed examination; Medical decision making of moderate complexity. Counseling and/or coordination of care with other physicians, other qualified health care professionals, or agencies are provided consistent with the nature of the problem(s) and the patient's and/or family's needs. Usually, the presenting problem(s) are moderate to high severity. Typically, 40 minutes are spent face-to-face with the patient and/or family."
          }, {
            "code": "99350",
            "display": "Home visit for the evaluation and management of an established patient, which requires at least 2 of these 3 key components: A comprehensive interval history; A comprehensive examination; Medical decision making of moderate to high complexity. Counseling and/or coordination of care with other physicians, other qualified health care professionals, or agencies are provided consistent with the nature of the problem(s) and the patient's and/or family's needs. Usually, the presenting problem(s) are of moderate to high severity. The patient may be unstable or may have developed a significant new problem requiring immediate physician attention. Typically, 60 minutes are spent face-to-face with the patient and/or family."
          } ]
        }, {
          "system": "http://snomed.info/sct",
          "version": "2018-03",
          "concept": [ {
            "code": "185460008",
            "display": "Home visit request by patient (procedure)"
          }, {
            "code": "185462000",
            "display": "Home visit request by relative (procedure)"
          }, {
            "code": "185466002",
            "display": "Home visit for urgent condition (procedure)"
          }, {
            "code": "185467006",
            "display": "Home visit for acute condition (procedure)"
          }, {
            "code": "185468001",
            "display": "Home visit for chronic condition (procedure)"
          }, {
            "code": "185470005",
            "display": "Home visit elderly assessment (procedure)"
          }, {
            "code": "225929007",
            "display": "Joint home visit (procedure)"
          }, {
            "code": "315205008",
            "display": "Bank holiday home visit (procedure)"
          }, {
            "code": "439708006",
            "display": "Home visit (procedure)"
          }, {
            "code": "698704008",
            "display": "Home visit for rheumatology service (procedure)"
          }, {
            "code": "704126008",
            "display": "Home visit for anticoagulant drug monitoring (procedure)"
          } ]
        } ]
      }
    },
    "request": {
      "method": "PUT",
      "url": "ValueSet/2.16.840.1.113883.3.464.1003.101.12.1016"
    }
  }, {
    "resource": {
      "resourceType": "Encounter",
      "id": "denom-EXM125-1",
      "meta": {
        "profile": [ "http://hl7.org/fhir/us/core/StructureDefinition/us-core-encounter" ]
      },
      "status": "finished",
      "class": {
        "system": "http://terminology.hl7.org/CodeSystem/v3-ActCode",
        "code": "AMB",
        "display": "ambulatory"
      },
      "type": [ {
        "coding": [ {
          "system": "http://www.ama-assn.org/go/cpt",
          "code": "99201",
          "display": "Office or other outpatient visit for the evaluation and management of a new patient, which requires these 3 key components: A problem focused history; A problem focused examination; Straightforward medical decision making. Counseling and/or coordination of care with other physicians, other qualified health care professionals, or agencies are provided consistent with the nature of the problem(s) and the patient's and/or family's needs. Usually, the presenting problem(s) are self limited or minor. Typically, 10 minutes are spent face-to-face with the patient and/or family."
        } ]
      } ],
      "subject": {
        "reference": "Patient/denom-EXM125"
      },
      "period": {
        "start": "2019-05-31T00:00:00-00:00",
        "end": "2019-05-31T00:00:00-00:00"
      }
    },
    "request": {
      "method": "PUT",
      "url": "Encounter/denom-EXM125-1"
    }
  }, {
    "resource": {
      "resourceType": "Library",
      "id": "library-Hospice-2.0.000",
      "extension": [ {
        "url": "http://hl7.org/fhir/us/cqfmeasures/StructureDefinition/cqfm-softwaresystem",
        "valueReference": {
          "reference": "#cqf-tooling"
        }
      } ],
      "url": "http://fhir.org/guides/dbcg/connectathon/Library/Hospice",
      "version": "2.0.000",
      "name": "Hospice",
      "status": "active",
      "experimental": true,
      "type": {
        "coding": [ {
          "system": "http://terminology.hl7.org/CodeSystem/library-type",
          "code": "logic-library"
        } ]
      },
      "relatedArtifact": [ {
        "type": "depends-on",
        "resource": "http://hl7.org/fhir/Library/FHIR-ModelInfo|4.0.1"
      }, {
        "type": "depends-on",
        "resource": "http://fhir.org/guides/dbcg/connectathon/Library/MATGlobalCommonFunctions|5.0.000"
      }, {
        "type": "depends-on",
        "resource": "http://hl7.org/fhir/Library/FHIRHelpers|4.0.1"
      }, {
        "type": "depends-on",
        "resource": "http://snomed.info/sct/731000124108|http://snomed.info/sct/731000124108/version/201709"
      }, {
        "type": "depends-on",
        "resource": "http://cts.nlm.nih.gov/fhir/ValueSet/2.16.840.1.113883.3.666.5.307"
      }, {
        "type": "depends-on",
        "resource": "http://cts.nlm.nih.gov/fhir/ValueSet/2.16.840.1.113762.1.4.1108.15"
      } ],
      "parameter": [ {
        "name": "Measurement Period",
        "use": "in",
        "min": 0,
        "max": "1",
        "type": "Period"
      }, {
        "name": "Patient",
        "use": "out",
        "min": 0,
        "max": "1",
        "type": "Patient"
      }, {
        "name": "Has Hospice",
        "use": "out",
        "min": 0,
        "max": "1",
        "type": "boolean"
      } ],
      "dataRequirement": [ {
        "type": "Encounter",
        "profile": [ "http://hl7.org/fhir/StructureDefinition/Encounter" ],
        "codeFilter": [ {
          "path": "type",
          "valueSet": "http://cts.nlm.nih.gov/fhir/ValueSet/2.16.840.1.113883.3.666.5.307"
        } ]
      }, {
        "type": "ServiceRequest",
        "profile": [ "http://hl7.org/fhir/StructureDefinition/ServiceRequest" ],
        "codeFilter": [ {
          "path": "code",
          "valueSet": "http://cts.nlm.nih.gov/fhir/ValueSet/2.16.840.1.113762.1.4.1108.15"
        } ]
      }, {
        "type": "Procedure",
        "profile": [ "http://hl7.org/fhir/StructureDefinition/Procedure" ],
        "codeFilter": [ {
          "path": "code",
          "valueSet": "http://cts.nlm.nih.gov/fhir/ValueSet/2.16.840.1.113762.1.4.1108.15"
        } ]
      } ],
      "content": [ {
        "contentType": "text/cql",
        "data": ""
      }, {
        "contentType": "application/elm+xml",
        "data": ""
      }, {
        "contentType": "application/elm+json",
        "data": ""
      } ]
    },
    "request": {
      "method": "PUT",
      "url": "Library/library-Hospice-2.0.000"
    }
  }, {
    "resource": {
      "resourceType": "ValueSet",
      "id": "2.16.840.1.113883.3.464.1003.122.12.1035",
      "url": "http://cts.nlm.nih.gov/fhir/ValueSet/2.16.840.1.113883.3.464.1003.122.12.1035",
      "identifier": [ {
        "system": "urn:ietf:rfc:3986",
        "value": "2.16.840.1.113883.3.464.1003.122.12.1035"
      } ],
      "version": "20171216",
      "name": "Right",
      "title": "Right",
      "status": "active",
      "publisher": "NLM",
      "compose": {
        "include": [ {
          "system": "http://snomed.info/sct",
          "version": "2018-03",
          "concept": [ {
            "code": "24028007",
            "display": "Right (qualifier value)"
          }, {
            "code": "419465000",
            "display": "Unilateral right (qualifier value)"
          } ]
        } ]
      }
    },
    "request": {
      "method": "PUT",
      "url": "ValueSet/2.16.840.1.113883.3.464.1003.122.12.1035"
    }
  }, {
    "resource": {
      "resourceType": "ValueSet",
      "id": "2.16.840.1.113883.3.464.1003.122.12.1036",
      "url": "http://cts.nlm.nih.gov/fhir/ValueSet/2.16.840.1.113883.3.464.1003.122.12.1036",
      "identifier": [ {
        "system": "urn:ietf:rfc:3986",
        "value": "2.16.840.1.113883.3.464.1003.122.12.1036"
      } ],
      "version": "20171216",
      "name": "Left",
      "title": "Left",
      "status": "active",
      "publisher": "NLM",
      "compose": {
        "include": [ {
          "system": "http://snomed.info/sct",
          "version": "2018-03",
          "concept": [ {
            "code": "419161000",
            "display": "Unilateral left (qualifier value)"
          }, {
            "code": "7771000",
            "display": "Left (qualifier value)"
          } ]
        } ]
      }
    },
    "request": {
      "method": "PUT",
      "url": "ValueSet/2.16.840.1.113883.3.464.1003.122.12.1036"
    }
  }, {
    "resource": {
      "resourceType": "Patient",
      "id": "numer-EXM125",
      "meta": {
        "profile": [ "http://hl7.org/fhir/us/core/StructureDefinition/us-core-patient" ]
      },
      "extension": [ {
        "url": "http://hl7.org/fhir/us/core/StructureDefinition/us-core-race",
        "extension": [ {
          "url": "ombCategory",
          "valueCoding": {
            "system": "urn:oid:2.16.840.1.113883.6.238",
            "code": "2028-9",
            "display": "Asian"
          }
        } ]
      }, {
        "url": "http://hl7.org/fhir/us/core/StructureDefinition/us-core-ethnicity",
        "extension": [ {
          "url": "ombCategory",
          "valueCoding": {
            "system": "urn:oid:2.16.840.1.113883.6.238",
            "code": "2135-2",
            "display": "Hispanic or Latino"
          }
        } ]
      } ],
      "identifier": [ {
        "use": "usual",
        "type": {
          "coding": [ {
            "system": "http://terminology.hl7.org/CodeSystem/v2-0203",
            "code": "MR",
            "display": "Medical Record Number"
          } ]
        },
        "system": "http://hospital.smarthealthit.org",
        "value": "999999995"
      } ],
      "name": [ {
        "family": "McCarren",
        "given": [ "Karen" ]
      } ],
      "gender": "female",
      "birthDate": "1965-01-01"
    },
    "request": {
      "method": "PUT",
      "url": "Patient/numer-EXM125"
    }
  }, {
    "resource": {
      "resourceType": "ValueSet",
      "id": "2.16.840.1.113883.3.464.1003.101.12.1025",
      "url": "http://cts.nlm.nih.gov/fhir/ValueSet/2.16.840.1.113883.3.464.1003.101.12.1025",
      "identifier": [ {
        "system": "urn:ietf:rfc:3986",
        "value": "2.16.840.1.113883.3.464.1003.101.12.1025"
      } ],
      "version": "20170504",
      "name": "PreventiveCareServices-EstablishedOfficeVisit,18andUp",
      "title": "Preventive Care Services - Established Office Visit, 18 and Up",
      "status": "active",
      "publisher": "NLM",
      "compose": {
        "include": [ {
          "system": "http://www.ama-assn.org/go/cpt",
          "version": "2018",
          "concept": [ {
            "code": "99395",
            "display": "Periodic comprehensive preventive medicine reevaluation and management of an individual including an age and gender appropriate history, examination, counseling/anticipatory guidance/risk factor reduction interventions, and the ordering of laboratory/diagnostic procedures, established patient; 18-39 years"
          }, {
            "code": "99396",
            "display": "Periodic comprehensive preventive medicine reevaluation and management of an individual including an age and gender appropriate history, examination, counseling/anticipatory guidance/risk factor reduction interventions, and the ordering of laboratory/diagnostic procedures, established patient; 40-64 years"
          }, {
            "code": "99397",
            "display": "Periodic comprehensive preventive medicine reevaluation and management of an individual including an age and gender appropriate history, examination, counseling/anticipatory guidance/risk factor reduction interventions, and the ordering of laboratory/diagnostic procedures, established patient; 65 years and older"
          } ]
        } ]
      }
    },
    "request": {
      "method": "PUT",
      "url": "ValueSet/2.16.840.1.113883.3.464.1003.101.12.1025"
    }
  }, {
    "resource": {
      "resourceType": "ValueSet",
      "id": "2.16.840.1.113883.3.464.1003.198.12.1070",
      "url": "http://cts.nlm.nih.gov/fhir/ValueSet/2.16.840.1.113883.3.464.1003.198.12.1070",
      "identifier": [ {
        "system": "urn:ietf:rfc:3986",
        "value": "2.16.840.1.113883.3.464.1003.198.12.1070"
      } ],
      "version": "20171216",
      "name": "StatusPostRightMastectomy",
      "title": "Status Post Right Mastectomy",
      "status": "active",
      "publisher": "NLM",
      "compose": {
        "include": [ {
          "system": "http://hl7.org/fhir/sid/icd-10",
          "version": "2019",
          "concept": [ {
            "code": "Z90.11",
            "display": "Acquired absence of right breast and nipple"
          } ]
        }, {
          "system": "http://snomed.info/sct",
          "version": "2018-03",
          "concept": [ {
            "code": "137681000119108",
            "display": "History of prophylactic mastectomy of right breast (situation)"
          }, {
            "code": "429242008",
            "display": "History of right mastectomy (situation)"
          } ]
        } ]
      }
    },
    "request": {
      "method": "PUT",
      "url": "ValueSet/2.16.840.1.113883.3.464.1003.198.12.1070"
    }
  }, {
    "resource": {
      "resourceType": "ValueSet",
      "id": "2.16.840.1.113883.3.464.1003.198.12.1071",
      "url": "http://cts.nlm.nih.gov/fhir/ValueSet/2.16.840.1.113883.3.464.1003.198.12.1071",
      "identifier": [ {
        "system": "urn:ietf:rfc:3986",
        "value": "2.16.840.1.113883.3.464.1003.198.12.1071"
      } ],
      "version": "20171216",
      "name": "UnilateralMastectomy,UnspecifiedLaterality",
      "title": "Unilateral Mastectomy, Unspecified Laterality",
      "status": "active",
      "publisher": "NLM",
      "compose": {
        "include": [ {
          "system": "http://hl7.org/fhir/sid/icd-10",
          "version": "2019",
          "concept": [ {
            "code": "Z90.10",
            "display": "Acquired absence of unspecified breast and nipple"
          } ]
        }, {
          "system": "http://hl7.org/fhir/sid/icd-9-cm",
          "version": "2013",
          "concept": [ {
            "code": "V45.71",
            "display": "Acquired absence of breast and nipple"
          } ]
        }, {
          "system": "http://snomed.info/sct",
          "version": "2017-09",
          "concept": [ {
            "code": "22964006",
            "display": "Unilateral simple mastectomy (situation)"
          }, {
            "code": "72269009",
            "display": "Unilateral modified radical mastectomy (situation)"
          }, {
            "code": "73359007",
            "display": "Unilateral mastectomy (situation)"
          }, {
            "code": "8115005",
            "display": "Unilateral radical mastectomy (situation)"
          }, {
            "code": "88764002",
            "display": "Unilateral extended simple mastectomy (situation)"
          } ]
        }, {
          "system": "http://snomed.info/sct",
          "version": "2018-03",
          "concept": [ {
            "code": "248802009",
            "display": "Absence of breast (finding)"
          } ]
        } ]
      }
    },
    "request": {
      "method": "PUT",
      "url": "ValueSet/2.16.840.1.113883.3.464.1003.198.12.1071"
    }
  }, {
    "resource": {
      "resourceType": "ValueSet",
      "id": "2.16.840.1.113883.3.560.100.2",
      "url": "http://cts.nlm.nih.gov/fhir/ValueSet/2.16.840.1.113883.3.560.100.2",
      "identifier": [ {
        "system": "urn:ietf:rfc:3986",
        "value": "2.16.840.1.113883.3.560.100.2"
      } ],
      "version": "20160331",
      "name": "Female",
      "title": "Female",
      "status": "active",
      "publisher": "NLM",
      "compose": {
        "include": [ {
          "system": "http://hl7.org/fhir/v3/AdministrativeGender",
          "version": "HL7V3.0_2017-07",
          "concept": [ {
            "code": "F",
            "display": "Female"
          } ]
        } ]
      }
    },
    "request": {
      "method": "PUT",
      "url": "ValueSet/2.16.840.1.113883.3.560.100.2"
    }
  }, {
    "resource": {
      "resourceType": "ValueSet",
      "id": "2.16.840.1.113883.3.464.1003.101.12.1001",
      "url": "http://cts.nlm.nih.gov/fhir/ValueSet/2.16.840.1.113883.3.464.1003.101.12.1001",
      "identifier": [ {
        "system": "urn:ietf:rfc:3986",
        "value": "2.16.840.1.113883.3.464.1003.101.12.1001"
      } ],
      "version": "20180310",
      "name": "OfficeVisit",
      "title": "Office Visit",
      "status": "active",
      "publisher": "NLM",
      "compose": {
        "include": [ {
          "system": "http://www.ama-assn.org/go/cpt",
          "version": "2018",
          "concept": [ {
            "code": "99201",
            "display": "Office or other outpatient visit for the evaluation and management of a new patient, which requires these 3 key components: A problem focused history; A problem focused examination; Straightforward medical decision making. Counseling and/or coordination of care with other physicians, other qualified health care professionals, or agencies are provided consistent with the nature of the problem(s) and the patient's and/or family's needs. Usually, the presenting problem(s) are self limited or minor. Typically, 10 minutes are spent face-to-face with the patient and/or family."
          }, {
            "code": "99202",
            "display": "Office or other outpatient visit for the evaluation and management of a new patient, which requires these 3 key components: An expanded problem focused history; An expanded problem focused examination; Straightforward medical decision making. Counseling and/or coordination of care with other physicians, other qualified health care professionals, or agencies are provided consistent with the nature of the problem(s) and the patient's and/or family's needs. Usually, the presenting problem(s) are of low to moderate severity. Typically, 20 minutes are spent face-to-face with the patient and/or family."
          }, {
            "code": "99203",
            "display": "Office or other outpatient visit for the evaluation and management of a new patient, which requires these 3 key components: A detailed history; A detailed examination; Medical decision making of low complexity. Counseling and/or coordination of care with other physicians, other qualified health care professionals, or agencies are provided consistent with the nature of the problem(s) and the patient's and/or family's needs. Usually, the presenting problem(s) are of moderate severity. Typically, 30 minutes are spent face-to-face with the patient and/or family."
          }, {
            "code": "99204",
            "display": "Office or other outpatient visit for the evaluation and management of a new patient, which requires these 3 key components: A comprehensive history; A comprehensive examination; Medical decision making of moderate complexity. Counseling and/or coordination of care with other physicians, other qualified health care professionals, or agencies are provided consistent with the nature of the problem(s) and the patient's and/or family's needs. Usually, the presenting problem(s) are of moderate to high severity. Typically, 45 minutes are spent face-to-face with the patient and/or family."
          }, {
            "code": "99205",
            "display": "Office or other outpatient visit for the evaluation and management of a new patient, which requires these 3 key components: A comprehensive history; A comprehensive examination; Medical decision making of high complexity. Counseling and/or coordination of care with other physicians, other qualified health care professionals, or agencies are provided consistent with the nature of the problem(s) and the patient's and/or family's needs. Usually, the presenting problem(s) are of moderate to high severity. Typically, 60 minutes are spent face-to-face with the patient and/or family."
          }, {
            "code": "99212",
            "display": "Office or other outpatient visit for the evaluation and management of an established patient, which requires at least 2 of these 3 key components: A problem focused history; A problem focused examination; Straightforward medical decision making. Counseling and/or coordination of care with other physicians, other qualified health care professionals, or agencies are provided consistent with the nature of the problem(s) and the patient's and/or family's needs. Usually, the presenting problem(s) are self limited or minor. Typically, 10 minutes are spent face-to-face with the patient and/or family."
          }, {
            "code": "99213",
            "display": "Office or other outpatient visit for the evaluation and management of an established patient, which requires at least 2 of these 3 key components: An expanded problem focused history; An expanded problem focused examination; Medical decision making of low complexity. Counseling and coordination of care with other physicians, other qualified health care professionals, or agencies are provided consistent with the nature of the problem(s) and the patient's and/or family's needs. Usually, the presenting problem(s) are of low to moderate severity. Typically, 15 minutes are spent face-to-face with the patient and/or family."
          }, {
            "code": "99214",
            "display": "Office or other outpatient visit for the evaluation and management of an established patient, which requires at least 2 of these 3 key components: A detailed history; A detailed examination; Medical decision making of moderate complexity. Counseling and/or coordination of care with other physicians, other qualified health care professionals, or agencies are provided consistent with the nature of the problem(s) and the patient's and/or family's needs. Usually, the presenting problem(s) are of moderate to high severity. Typically, 25 minutes are spent face-to-face with the patient and/or family."
          }, {
            "code": "99215",
            "display": "Office or other outpatient visit for the evaluation and management of an established patient, which requires at least 2 of these 3 key components: A comprehensive history; A comprehensive examination; Medical decision making of high complexity. Counseling and/or coordination of care with other physicians, other qualified health care professionals, or agencies are provided consistent with the nature of the problem(s) and the patient's and/or family's needs. Usually, the presenting problem(s) are of moderate to high severity. Typically, 40 minutes are spent face-to-face with the patient and/or family."
          } ]
        }, {
          "system": "http://snomed.info/sct",
          "version": "2018-03",
          "concept": [ {
            "code": "185463005",
            "display": "Visit out of hours (procedure)"
          }, {
            "code": "185464004",
            "display": "Out of hours visit - not night visit (procedure)"
          }, {
            "code": "185465003",
            "display": "Weekend visit (procedure)"
          }, {
            "code": "30346009",
            "display": "Evaluation and management of established outpatient in office or other outpatient facility (procedure)"
          }, {
            "code": "3391000175108",
            "display": "Office visit for pediatric care and assessment (procedure)"
          }, {
            "code": "37894004",
            "display": "Evaluation and management of new outpatient in office or other outpatient facility (procedure)"
          }, {
            "code": "439740005",
            "display": "Postoperative follow-up visit (procedure)"
          } ]
        } ]
      }
    },
    "request": {
      "method": "PUT",
      "url": "ValueSet/2.16.840.1.113883.3.464.1003.101.12.1001"
    }
  }, {
    "resource": {
      "resourceType": "ValueSet",
      "id": "2.16.840.1.113883.3.464.1003.101.12.1023",
      "url": "http://cts.nlm.nih.gov/fhir/ValueSet/2.16.840.1.113883.3.464.1003.101.12.1023",
      "identifier": [ {
        "system": "urn:ietf:rfc:3986",
        "value": "2.16.840.1.113883.3.464.1003.101.12.1023"
      } ],
      "version": "20170504",
      "name": "PreventiveCareServices-InitialOfficeVisit,18andUp",
      "title": "Preventive Care Services-Initial Office Visit, 18 and Up",
      "status": "active",
      "publisher": "NLM",
      "compose": {
        "include": [ {
          "system": "http://www.ama-assn.org/go/cpt",
          "version": "2018",
          "concept": [ {
            "code": "99385",
            "display": "Initial comprehensive preventive medicine evaluation and management of an individual including an age and gender appropriate history, examination, counseling/anticipatory guidance/risk factor reduction interventions, and the ordering of laboratory/diagnostic procedures, new patient; 18-39 years"
          }, {
            "code": "99386",
            "display": "Initial comprehensive preventive medicine evaluation and management of an individual including an age and gender appropriate history, examination, counseling/anticipatory guidance/risk factor reduction interventions, and the ordering of laboratory/diagnostic procedures, new patient; 40-64 years"
          }, {
            "code": "99387",
            "display": "Initial comprehensive preventive medicine evaluation and management of an individual including an age and gender appropriate history, examination, counseling/anticipatory guidance/risk factor reduction interventions, and the ordering of laboratory/diagnostic procedures, new patient; 65 years and older"
          } ]
        } ]
      }
    },
    "request": {
      "method": "PUT",
      "url": "ValueSet/2.16.840.1.113883.3.464.1003.101.12.1023"
    }
  }, {
    "resource": {
      "resourceType": "ValueSet",
      "id": "2.16.840.1.113762.1.4.1111.143",
      "url": "http://cts.nlm.nih.gov/fhir/ValueSet/2.16.840.1.113762.1.4.1111.143",
      "title": "Observation Services",
      "status": "active",
      "publisher": "The Joint Commission",
      "compose": {
        "include": [ {
          "system": "http://snomed.info/sct",
          "version": "2019-09",
          "concept": [ {
            "code": "448851000124103",
            "display": "Hospital admission from observation unit (procedure)"
          }, {
            "code": "448951000124107",
            "display": "Admission to observation unit (procedure)"
          }, {
            "code": "76464004",
            "display": "Hospital admission, for observation (procedure)"
          } ]
        } ]
      }
    },
    "request": {
      "method": "PUT",
      "url": "ValueSet/2.16.840.1.113762.1.4.1111.143"
    }
  }, {
    "resource": {
      "resourceType": "MeasureReport",
      "id": "measurereport-numer-EXM125",
      "contained": [ {
        "resourceType": "Bundle",
        "id": "6105e8c0-8527-40a4-8e67-2e07f05f2f25",
        "type": "collection",
        "entry": [ {
          "fullUrl": "Encounter/numer-EXM125-1",
          "resource": {
            "resourceType": "Encounter",
            "id": "numer-EXM125-1",
            "meta": {
              "profile": [ "http://hl7.org/fhir/us/core/StructureDefinition/us-core-encounter" ]
            },
            "status": "finished",
            "class": {
              "system": "http://terminology.hl7.org/CodeSystem/v3-ActCode",
              "code": "AMB",
              "display": "ambulatory"
            },
            "type": [ {
              "coding": [ {
                "system": "http://www.ama-assn.org/go/cpt",
                "code": "99201",
                "display": "Office or other outpatient visit for the evaluation and management of a new patient, which requires these 3 key components: A problem focused history; A problem focused examination; Straightforward medical decision making. Counseling and/or coordination of care with other physicians, other qualified health care professionals, or agencies are provided consistent with the nature of the problem(s) and the patient's and/or family's needs. Usually, the presenting problem(s) are self limited or minor. Typically, 10 minutes are spent face-to-face with the patient and/or family."
              } ]
            } ],
            "subject": {
              "reference": "Patient/numer-EXM125"
            },
            "period": {
              "start": "2019-05-31T00:00:00-00:00",
              "end": "2019-05-31T00:00:00-00:00"
            }
          }
        }, {
          "fullUrl": "9a883f09-9212-4055-83c4-2343668699c5",
          "resource": {
            "resourceType": "List",
            "id": "9a883f09-9212-4055-83c4-2343668699c5",
            "title": "denominator",
            "entry": [ {
              "item": {
                "reference": "numer-EXM125-1"
              }
            }, {
              "item": {
                "reference": "numer-EXM125"
              }
            } ]
          }
        }, {
          "fullUrl": "8ef2d2ec-b60b-4b8a-a1dd-d7763b87684c",
          "resource": {
            "resourceType": "List",
            "id": "8ef2d2ec-b60b-4b8a-a1dd-d7763b87684c",
            "title": "numerator",
            "entry": [ {
              "item": {
                "reference": "numer-EXM125-3"
              }
            } ]
          }
        }, {
          "fullUrl": "Patient/numer-EXM125",
          "resource": {
            "resourceType": "Patient",
            "id": "numer-EXM125",
            "meta": {
              "profile": [ "http://hl7.org/fhir/us/core/StructureDefinition/us-core-patient" ]
            },
            "extension": [ {
              "url": "http://hl7.org/fhir/us/core/StructureDefinition/us-core-race",
              "extension": [ {
                "url": "ombCategory",
                "valueCoding": {
                  "system": "urn:oid:2.16.840.1.113883.6.238",
                  "code": "2028-9",
                  "display": "Asian"
                }
              } ]
            }, {
              "url": "http://hl7.org/fhir/us/core/StructureDefinition/us-core-ethnicity",
              "extension": [ {
                "url": "ombCategory",
                "valueCoding": {
                  "system": "urn:oid:2.16.840.1.113883.6.238",
                  "code": "2135-2",
                  "display": "Hispanic or Latino"
                }
              } ]
            } ],
            "identifier": [ {
              "use": "usual",
              "type": {
                "coding": [ {
                  "system": "http://terminology.hl7.org/CodeSystem/v2-0203",
                  "code": "MR",
                  "display": "Medical Record Number"
                } ]
              },
              "system": "http://hospital.smarthealthit.org",
              "value": "999999995"
            } ],
            "name": [ {
              "family": "McCarren",
              "given": [ "Karen" ]
            } ],
            "gender": "female",
            "birthDate": "1965-01-01"
          }
        }, {
          "fullUrl": "DiagnosticReport/numer-EXM125-3",
          "resource": {
            "resourceType": "DiagnosticReport",
            "id": "numer-EXM125-3",
            "meta": {
              "profile": [ "http://hl7.org/fhir/us/core/StructureDefinition/us-core-diagnosticreport-note" ]
            },
            "status": "final",
            "code": {
              "coding": [ {
                "system": "http://loinc.org",
                "code": "24604-1",
                "display": "MG Breast Diagnostic Limited Views"
              } ]
            },
            "subject": {
              "reference": "Patient/numer-EXM125"
            },
            "effectivePeriod": {
              "start": "2018-05-30T00:00:00-00:00",
              "end": "2018-11-30T00:00:00-00:00"
            }
          }
        }, {
          "fullUrl": "08fd841d-7baa-4d47-b7cd-6637d72ab97e",
          "resource": {
            "resourceType": "List",
            "id": "08fd841d-7baa-4d47-b7cd-6637d72ab97e",
            "title": "initial-population",
            "entry": [ {
              "item": {
                "reference": "numer-EXM125-1"
              }
            }, {
              "item": {
                "reference": "numer-EXM125"
              }
            } ]
          }
        } ]
      } ],
      "status": "complete",
      "type": "individual",
      "measure": "Measure/measure-EXM125-7.3.000",
      "subject": {
        "reference": "Patient/numer-EXM125"
      },
      "period": {
        "start": "2018-12-31T17:00:00-07:00",
        "end": "2019-12-30T17:00:00-07:00"
      },
      "group": [ {
        "id": "group-1",
        "population": [ {
          "code": {
            "coding": [ {
              "system": "http://terminology.hl7.org/CodeSystem/measure-population",
              "code": "initial-population",
              "display": "Initial Population"
            } ]
          },
          "count": 1
        }, {
          "code": {
            "coding": [ {
              "system": "http://terminology.hl7.org/CodeSystem/measure-population",
              "code": "numerator",
              "display": "Numerator"
            } ]
          },
          "count": 1
        }, {
          "code": {
            "coding": [ {
              "system": "http://terminology.hl7.org/CodeSystem/measure-population",
              "code": "denominator",
              "display": "Denominator"
            } ]
          },
          "count": 1
        }, {
          "code": {
            "coding": [ {
              "system": "http://terminology.hl7.org/CodeSystem/measure-population",
              "code": "denominator-exclusion",
              "display": "Denominator Exclusion"
            } ]
          },
          "count": 0
        } ],
        "measureScore": {
          "value": 1.0
        }
      } ],
      "evaluatedResource": [ {
        "reference": "#6105e8c0-8527-40a4-8e67-2e07f05f2f25"
      } ]
    },
    "request": {
      "method": "PUT",
      "url": "MeasureReport/measurereport-numer-EXM125"
    }
  }, {
    "resource": {
      "resourceType": "Library",
      "id": "library-SupplementalDataElements-2.0.0",
      "extension": [ {
        "url": "http://hl7.org/fhir/us/cqfmeasures/StructureDefinition/cqfm-softwaresystem",
        "valueReference": {
          "reference": "#cqf-tooling"
        }
      } ],
      "url": "http://fhir.org/guides/dbcg/connectathon/Library/SupplementalDataElements",
      "version": "2.0.0",
      "name": "SupplementalDataElements",
      "status": "active",
      "experimental": true,
      "type": {
        "coding": [ {
          "system": "http://terminology.hl7.org/CodeSystem/library-type",
          "code": "logic-library"
        } ]
      },
      "relatedArtifact": [ {
        "type": "depends-on",
        "resource": "http://hl7.org/fhir/Library/FHIR-ModelInfo|4.0.1"
      }, {
        "type": "depends-on",
        "resource": "http://hl7.org/fhir/Library/FHIRHelpers|4.0.1"
      }, {
        "type": "depends-on",
        "resource": "http://cts.nlm.nih.gov/fhir/ValueSet/2.16.840.1.113762.1.4.1"
      }, {
        "type": "depends-on",
        "resource": "http://cts.nlm.nih.gov/fhir/ValueSet/2.16.840.1.114222.4.11.836"
      }, {
        "type": "depends-on",
        "resource": "http://cts.nlm.nih.gov/fhir/ValueSet/2.16.840.1.114222.4.11.837"
      }, {
        "type": "depends-on",
        "resource": "http://cts.nlm.nih.gov/fhir/ValueSet/2.16.840.1.114222.4.11.3591"
      } ],
      "parameter": [ {
        "name": "Patient",
        "use": "out",
        "min": 0,
        "max": "1",
        "type": "Patient"
      }, {
        "name": "SDE Ethnicity",
        "use": "out",
        "min": 0,
        "max": "*",
        "type": "Coding"
      }, {
        "name": "SDE Payer",
        "use": "out",
        "min": 0,
        "max": "*",
        "type": "Any"
      }, {
        "name": "SDE Race",
        "use": "out",
        "min": 0,
        "max": "*",
        "type": "Coding"
      }, {
        "name": "SDE Sex",
        "use": "out",
        "min": 0,
        "max": "1",
        "type": "Coding"
      } ],
      "dataRequirement": [ {
        "type": "Coverage",
        "profile": [ "http://hl7.org/fhir/StructureDefinition/Coverage" ],
        "codeFilter": [ {
          "path": "type",
          "valueSet": "http://cts.nlm.nih.gov/fhir/ValueSet/2.16.840.1.114222.4.11.3591"
        } ]
      } ],
      "content": [ {
        "contentType": "text/cql",
        "data": ""
      }, {
        "contentType": "application/elm+xml",
        "data": ""
      }, {
        "contentType": "application/elm+json",
        "data": ""
      } ]
    },
    "request": {
      "method": "PUT",
      "url": "Library/library-SupplementalDataElements-2.0.0"
    }
  }, {
    "resource": {
      "resourceType": "DiagnosticReport",
      "id": "numer-EXM125-3",
      "meta": {
        "profile": [ "http://hl7.org/fhir/us/core/StructureDefinition/us-core-diagnosticreport-note" ]
      },
      "status": "final",
      "code": {
        "coding": [ {
          "system": "http://loinc.org",
          "code": "24604-1",
          "display": "MG Breast Diagnostic Limited Views"
        } ]
      },
      "subject": {
        "reference": "Patient/numer-EXM125"
      },
      "effectivePeriod": {
        "start": "2018-05-30T00:00:00-00:00",
        "end": "2018-11-30T00:00:00-00:00"
      }
    },
    "request": {
      "method": "PUT",
      "url": "DiagnosticReport/numer-EXM125-3"
    }
  }, {
    "resource": {
      "resourceType": "ValueSet",
      "id": "2.16.840.1.113762.1.4.1",
      "url": "http://cts.nlm.nih.gov/fhir/ValueSet/2.16.840.1.113762.1.4.1",
      "identifier": [ {
        "system": "urn:ietf:rfc:3986",
        "value": "2.16.840.1.113762.1.4.1"
      } ],
      "version": "20150331",
      "name": "ONCAdministrativeSex",
      "title": "ONC Administrative Sex",
      "status": "active",
      "publisher": "NLM",
      "compose": {
        "include": [ {
          "system": "http://hl7.org/fhir/v3/AdministrativeGender",
          "version": "HL7V3.0_2017-07",
          "concept": [ {
            "code": "F",
            "display": "Female"
          }, {
            "code": "M",
            "display": "Male"
          } ]
        } ]
      }
    },
    "request": {
      "method": "PUT",
      "url": "ValueSet/2.16.840.1.113762.1.4.1"
    }
  }, {
    "resource": {
      "resourceType": "MeasureReport",
      "id": "measurereport-denom-EXM125",
      "contained": [ {
        "resourceType": "Bundle",
        "id": "c8691f84-3d73-4570-8211-5696411b3fe8",
        "type": "collection",
        "entry": [ {
          "fullUrl": "be2e5cd9-f295-4ecf-9e31-d1143427e75a",
          "resource": {
            "resourceType": "List",
            "id": "be2e5cd9-f295-4ecf-9e31-d1143427e75a",
            "title": "numerator",
            "entry": [ {
              "item": {
                "reference": "denom-EXM125-3"
              }
            } ]
          }
        }, {
          "fullUrl": "DiagnosticReport/denom-EXM125-3",
          "resource": {
            "resourceType": "DiagnosticReport",
            "id": "denom-EXM125-3",
            "meta": {
              "profile": [ "http://hl7.org/fhir/us/core/StructureDefinition/us-core-diagnosticreport-note" ]
            },
            "status": "final",
            "code": {
              "coding": [ {
                "system": "http://loinc.org",
                "code": "24604-1",
                "display": "MG Breast Diagnostic Limited Views"
              } ]
            },
            "subject": {
              "reference": "Patient/denom-EXM125"
            },
            "effectivePeriod": {
              "start": "2016-11-01T00:00:00",
              "end": "2016-11-01T00:00:00"
            }
          }
        }, {
          "fullUrl": "14aba553-6dd8-4439-bfb4-11bb1c2f6ce9",
          "resource": {
            "resourceType": "List",
            "id": "14aba553-6dd8-4439-bfb4-11bb1c2f6ce9",
            "title": "denominator",
            "entry": [ {
              "item": {
                "reference": "denom-EXM125"
              }
            }, {
              "item": {
                "reference": "denom-EXM125-1"
              }
            } ]
          }
        }, {
          "fullUrl": "Patient/denom-EXM125",
          "resource": {
            "resourceType": "Patient",
            "id": "denom-EXM125",
            "meta": {
              "profile": [ "http://hl7.org/fhir/us/core/StructureDefinition/us-core-patient" ]
            },
            "extension": [ {
              "url": "http://hl7.org/fhir/us/core/StructureDefinition/us-core-race",
              "extension": [ {
                "url": "ombCategory",
                "valueCoding": {
                  "system": "urn:oid:2.16.840.1.113883.6.238",
                  "code": "2028-9",
                  "display": "Asian"
                }
              } ]
            }, {
              "url": "http://hl7.org/fhir/us/core/StructureDefinition/us-core-ethnicity",
              "extension": [ {
                "url": "ombCategory",
                "valueCoding": {
                  "system": "urn:oid:2.16.840.1.113883.6.238",
                  "code": "2135-2",
                  "display": "Hispanic or Latino"
                }
              } ]
            } ],
            "identifier": [ {
              "use": "usual",
              "type": {
                "coding": [ {
                  "system": "http://terminology.hl7.org/CodeSystem/v2-0203",
                  "code": "MR",
                  "display": "Medical Record Number"
                } ]
              },
              "system": "http://hospital.smarthealthit.org",
              "value": "999999995"
            } ],
            "name": [ {
              "family": "Dunn",
              "given": [ "Dorothy" ]
            } ],
            "gender": "female",
            "birthDate": "1965-01-01"
          }
        }, {
          "fullUrl": "Encounter/denom-EXM125-1",
          "resource": {
            "resourceType": "Encounter",
            "id": "denom-EXM125-1",
            "meta": {
              "profile": [ "http://hl7.org/fhir/us/core/StructureDefinition/us-core-encounter" ]
            },
            "status": "finished",
            "class": {
              "system": "http://terminology.hl7.org/CodeSystem/v3-ActCode",
              "code": "AMB",
              "display": "ambulatory"
            },
            "type": [ {
              "coding": [ {
                "system": "http://www.ama-assn.org/go/cpt",
                "code": "99201",
                "display": "Office or other outpatient visit for the evaluation and management of a new patient, which requires these 3 key components: A problem focused history; A problem focused examination; Straightforward medical decision making. Counseling and/or coordination of care with other physicians, other qualified health care professionals, or agencies are provided consistent with the nature of the problem(s) and the patient's and/or family's needs. Usually, the presenting problem(s) are self limited or minor. Typically, 10 minutes are spent face-to-face with the patient and/or family."
              } ]
            } ],
            "subject": {
              "reference": "Patient/denom-EXM125"
            },
            "period": {
              "start": "2019-05-31T00:00:00-00:00",
              "end": "2019-05-31T00:00:00-00:00"
            }
          }
        }, {
          "fullUrl": "48ff6ecc-39b2-4190-ba70-ad5c4d9cd01f",
          "resource": {
            "resourceType": "List",
            "id": "48ff6ecc-39b2-4190-ba70-ad5c4d9cd01f",
            "title": "initial-population",
            "entry": [ {
              "item": {
                "reference": "denom-EXM125"
              }
            }, {
              "item": {
                "reference": "denom-EXM125-1"
              }
            } ]
          }
        } ]
      } ],
      "status": "complete",
      "type": "individual",
      "measure": "Measure/measure-EXM125-7.3.000",
      "subject": {
        "reference": "Patient/denom-EXM125"
      },
      "period": {
        "start": "2018-12-31T17:00:00-07:00",
        "end": "2019-12-30T17:00:00-07:00"
      },
      "group": [ {
        "id": "group-1",
        "population": [ {
          "code": {
            "coding": [ {
              "system": "http://terminology.hl7.org/CodeSystem/measure-population",
              "code": "initial-population",
              "display": "Initial Population"
            } ]
          },
          "count": 1
        }, {
          "code": {
            "coding": [ {
              "system": "http://terminology.hl7.org/CodeSystem/measure-population",
              "code": "numerator",
              "display": "Numerator"
            } ]
          },
          "count": 0
        }, {
          "code": {
            "coding": [ {
              "system": "http://terminology.hl7.org/CodeSystem/measure-population",
              "code": "denominator",
              "display": "Denominator"
            } ]
          },
          "count": 1
        }, {
          "code": {
            "coding": [ {
              "system": "http://terminology.hl7.org/CodeSystem/measure-population",
              "code": "denominator-exclusion",
              "display": "Denominator Exclusion"
            } ]
          },
          "count": 0
        } ],
        "measureScore": {
          "value": 0.0
        }
      } ],
      "evaluatedResource": [ {
        "reference": "#c8691f84-3d73-4570-8211-5696411b3fe8"
      } ]
    },
    "request": {
      "method": "PUT",
      "url": "MeasureReport/measurereport-denom-EXM125"
    }
  }, {
    "resource": {
      "resourceType": "ValueSet",
      "id": "2.16.840.1.113883.3.526.3.1240",
      "url": "http://cts.nlm.nih.gov/fhir/ValueSet/2.16.840.1.113883.3.526.3.1240",
      "identifier": [ {
        "system": "urn:ietf:rfc:3986",
        "value": "2.16.840.1.113883.3.526.3.1240"
      } ],
      "version": "20170504",
      "name": "AnnualWellnessVisit",
      "title": "Annual Wellness Visit",
      "status": "active",
      "publisher": "NLM",
      "compose": {
        "include": [ {
          "system": "https://www.cms.gov/Medicare/Coding/MedHCPCSGenInfo/index.html",
          "version": "2018",
          "concept": [ {
            "code": "G0438",
            "display": "Annual wellness visit; includes a personalized prevention plan of service (pps), initial visit"
          }, {
            "code": "G0439",
            "display": "Annual wellness visit, includes a personalized prevention plan of service (pps), subsequent visit"
          } ]
        } ]
      }
    },
    "request": {
      "method": "PUT",
      "url": "ValueSet/2.16.840.1.113883.3.526.3.1240"
    }
  }, {
    "resource": {
      "resourceType": "DiagnosticReport",
      "id": "denom-EXM125-3",
      "meta": {
        "profile": [ "http://hl7.org/fhir/us/core/StructureDefinition/us-core-diagnosticreport-note" ]
      },
      "status": "final",
      "code": {
        "coding": [ {
          "system": "http://loinc.org",
          "code": "24604-1",
          "display": "MG Breast Diagnostic Limited Views"
        } ]
      },
      "subject": {
        "reference": "Patient/denom-EXM125"
      },
      "effectivePeriod": {
        "start": "2016-11-01T00:00:00",
        "end": "2016-11-01T00:00:00"
      }
    },
    "request": {
      "method": "PUT",
      "url": "DiagnosticReport/denom-EXM125-3"
    }
  }, {
    "resource": {
      "resourceType": "Encounter",
      "id": "numer-EXM125-1",
      "meta": {
        "profile": [ "http://hl7.org/fhir/us/core/StructureDefinition/us-core-encounter" ]
      },
      "status": "finished",
      "class": {
        "system": "http://terminology.hl7.org/CodeSystem/v3-ActCode",
        "code": "AMB",
        "display": "ambulatory"
      },
      "type": [ {
        "coding": [ {
          "system": "http://www.ama-assn.org/go/cpt",
          "code": "99201",
          "display": "Office or other outpatient visit for the evaluation and management of a new patient, which requires these 3 key components: A problem focused history; A problem focused examination; Straightforward medical decision making. Counseling and/or coordination of care with other physicians, other qualified health care professionals, or agencies are provided consistent with the nature of the problem(s) and the patient's and/or family's needs. Usually, the presenting problem(s) are self limited or minor. Typically, 10 minutes are spent face-to-face with the patient and/or family."
        } ]
      } ],
      "subject": {
        "reference": "Patient/numer-EXM125"
      },
      "period": {
        "start": "2019-05-31T00:00:00-00:00",
        "end": "2019-05-31T00:00:00-00:00"
      }
    },
    "request": {
      "method": "PUT",
      "url": "Encounter/numer-EXM125-1"
    }
  }, {
    "resource": {
      "resourceType": "Patient",
      "id": "denom-EXM125",
      "meta": {
        "profile": [ "http://hl7.org/fhir/us/core/StructureDefinition/us-core-patient" ]
      },
      "extension": [ {
        "url": "http://hl7.org/fhir/us/core/StructureDefinition/us-core-race",
        "extension": [ {
          "url": "ombCategory",
          "valueCoding": {
            "system": "urn:oid:2.16.840.1.113883.6.238",
            "code": "2028-9",
            "display": "Asian"
          }
        } ]
      }, {
        "url": "http://hl7.org/fhir/us/core/StructureDefinition/us-core-ethnicity",
        "extension": [ {
          "url": "ombCategory",
          "valueCoding": {
            "system": "urn:oid:2.16.840.1.113883.6.238",
            "code": "2135-2",
            "display": "Hispanic or Latino"
          }
        } ]
      } ],
      "identifier": [ {
        "use": "usual",
        "type": {
          "coding": [ {
            "system": "http://terminology.hl7.org/CodeSystem/v2-0203",
            "code": "MR",
            "display": "Medical Record Number"
          } ]
        },
        "system": "http://hospital.smarthealthit.org",
        "value": "999999995"
      } ],
      "name": [ {
        "family": "Dunn",
        "given": [ "Dorothy" ]
      } ],
      "gender": "female",
      "birthDate": "1965-01-01"
    },
    "request": {
      "method": "PUT",
      "url": "Patient/denom-EXM125"
    }
  }, {
    "resource": {
      "resourceType": "ValueSet",
      "id": "2.16.840.1.113762.1.4.1108.15",
      "url": "http://cts.nlm.nih.gov/fhir/ValueSet/2.16.840.1.113762.1.4.1108.15",
      "identifier": [ {
        "system": "urn:ietf:rfc:3986",
        "value": "2.16.840.1.113762.1.4.1108.15"
      } ],
      "version": "20170504",
      "name": "Hospicecareambulatory",
      "title": "Hospice care ambulatory",
      "status": "active",
      "publisher": "NLM",
      "compose": {
        "include": [ {
          "system": "http://snomed.info/sct",
          "version": "2018-03",
          "concept": [ {
            "code": "385763009",
            "display": "Hospice care (regime/therapy)"
          }, {
            "code": "385765002",
            "display": "Hospice care management (procedure)"
          } ]
        } ]
      }
    },
    "request": {
      "method": "PUT",
      "url": "ValueSet/2.16.840.1.113762.1.4.1108.15"
    }
  }, {
    "resource": {
      "resourceType": "ValueSet",
      "id": "2.16.840.1.114222.4.11.3591",
      "url": "http://cts.nlm.nih.gov/fhir/ValueSet/2.16.840.1.114222.4.11.3591",
      "identifier": [ {
        "system": "urn:ietf:rfc:3986",
        "value": "2.16.840.1.114222.4.11.3591"
      } ],
      "version": "20180718",
      "name": "Payer",
      "title": "Payer",
      "status": "active",
      "publisher": "NLM",
      "compose": {
        "include": [ {
          "system": "http://www.phdsc.org/standards/pdfs/SourceofPaymentTypologyVersion6FINALSeptember2015.pdf",
          "version": "8.0",
          "concept": [ {
            "code": "1",
            "display": "MEDICARE"
          }, {
            "code": "11",
            "display": "Medicare (Managed Care)"
          }, {
            "code": "111",
            "display": "Medicare HMO"
          }, {
            "code": "112",
            "display": "Medicare PPO"
          }, {
            "code": "113",
            "display": "Medicare POS"
          }, {
            "code": "119",
            "display": "Medicare Managed Care Other"
          }, {
            "code": "12",
            "display": "Medicare (Non-managed Care)"
          }, {
            "code": "121",
            "display": "Medicare FFS"
          }, {
            "code": "122",
            "display": "Medicare Drug Benefit"
          }, {
            "code": "123",
            "display": "Medicare Medical Savings Account (MSA)"
          }, {
            "code": "129",
            "display": "Medicare Non-managed Care Other"
          }, {
            "code": "13",
            "display": "Medicare Hospice"
          }, {
            "code": "14",
            "display": "Dual Eligibility Medicare/Medicaid Organization"
          }, {
            "code": "19",
            "display": "Medicare Other"
          }, {
            "code": "191",
            "display": "Medicare Pharmacy Benefit Manager"
          }, {
            "code": "2",
            "display": "MEDICAID"
          }, {
            "code": "21",
            "display": "Medicaid (Managed Care)"
          }, {
            "code": "211",
            "display": "Medicaid HMO"
          }, {
            "code": "212",
            "display": "Medicaid PPO"
          }, {
            "code": "213",
            "display": "Medicaid PCCM (Primary Care Case Management)"
          }, {
            "code": "219",
            "display": "Medicaid Managed Care Other"
          }, {
            "code": "22",
            "display": "Medicaid (Non-managed Care Plan)"
          }, {
            "code": "23",
            "display": "Medicaid/SCHIP"
          }, {
            "code": "25",
            "display": "Medicaid - Out of State"
          }, {
            "code": "26",
            "display": "Medicaid -- Long Term Care"
          }, {
            "code": "29",
            "display": "Medicaid Other"
          }, {
            "code": "291",
            "display": "Medicaid Pharmacy Benefit Manager"
          }, {
            "code": "299",
            "display": "Medicaid - Dental"
          }, {
            "code": "3",
            "display": "OTHER GOVERNMENT (Federal/State/Local) (excluding Department of Corrections)"
          }, {
            "code": "31",
            "display": "Department of Defense"
          }, {
            "code": "311",
            "display": "TRICARE (CHAMPUS)"
          }, {
            "code": "3111",
            "display": "TRICARE Prime--HMO"
          }, {
            "code": "3112",
            "display": "TRICARE Extra--PPO"
          }, {
            "code": "3113",
            "display": "TRICARE Standard - Fee For Service"
          }, {
            "code": "3114",
            "display": "TRICARE For Life--Medicare Supplement"
          }, {
            "code": "3115",
            "display": "TRICARE Reserve Select"
          }, {
            "code": "3116",
            "display": "Uniformed Services Family Health Plan (USFHP) -- HMO"
          }, {
            "code": "3119",
            "display": "Department of Defense - (other)"
          }, {
            "code": "312",
            "display": "Military Treatment Facility"
          }, {
            "code": "3121",
            "display": "Enrolled Prime--HMO"
          }, {
            "code": "3122",
            "display": "Non-enrolled Space Available"
          }, {
            "code": "3123",
            "display": "TRICARE For Life (TFL)"
          }, {
            "code": "313",
            "display": "Dental --Stand Alone"
          }, {
            "code": "32",
            "display": "Department of Veterans Affairs"
          }, {
            "code": "321",
            "display": "Veteran care--Care provided to Veterans"
          }, {
            "code": "3211",
            "display": "Direct Care--Care provided in VA facilities"
          }, {
            "code": "3212",
            "display": "Indirect Care--Care provided outside VA facilities"
          }, {
            "code": "32121",
            "display": "Fee Basis"
          }, {
            "code": "32122",
            "display": "Foreign Fee/Foreign Medical Program (FMP)"
          }, {
            "code": "32123",
            "display": "Contract Nursing Home/Community Nursing Home"
          }, {
            "code": "32124",
            "display": "State Veterans Home"
          }, {
            "code": "32125",
            "display": "Sharing Agreements"
          }, {
            "code": "32126",
            "display": "Other Federal Agency"
          }, {
            "code": "32127",
            "display": "Dental Care"
          }, {
            "code": "32128",
            "display": "Vision Care"
          }, {
            "code": "322",
            "display": "Non-veteran care"
          }, {
            "code": "3221",
            "display": "Civilian Health and Medical Program for the VA (CHAMPVA)"
          }, {
            "code": "3222",
            "display": "Spina Bifida Health Care Program (SB)"
          }, {
            "code": "3223",
            "display": "Children of Women Vietnam Veterans (CWVV)"
          }, {
            "code": "3229",
            "display": "Other non-veteran care"
          }, {
            "code": "33",
            "display": "Indian Health Service or Tribe"
          }, {
            "code": "331",
            "display": "Indian Health Service -- Regular"
          }, {
            "code": "332",
            "display": "Indian Health Service -- Contract"
          }, {
            "code": "333",
            "display": "Indian Health Service - Managed Care"
          }, {
            "code": "334",
            "display": "Indian Tribe - Sponsored Coverage"
          }, {
            "code": "34",
            "display": "HRSA Program"
          }, {
            "code": "341",
            "display": "Title V (MCH Block Grant)"
          }, {
            "code": "342",
            "display": "Migrant Health Program"
          }, {
            "code": "343",
            "display": "Ryan White Act"
          }, {
            "code": "349",
            "display": "Other"
          }, {
            "code": "35",
            "display": "Black Lung"
          }, {
            "code": "36",
            "display": "State Government"
          }, {
            "code": "361",
            "display": "State SCHIP program (codes for individual states)"
          }, {
            "code": "362",
            "display": "Specific state programs (list/ local code)"
          }, {
            "code": "369",
            "display": "State, not otherwise specified (other state)"
          }, {
            "code": "37",
            "display": "Local Government"
          }, {
            "code": "371",
            "display": "Local - Managed care"
          }, {
            "code": "3711",
            "display": "HMO"
          }, {
            "code": "3712",
            "display": "PPO"
          }, {
            "code": "3713",
            "display": "POS"
          }, {
            "code": "372",
            "display": "FFS/Indemnity"
          }, {
            "code": "379",
            "display": "Local, not otherwise specified (other local, county)"
          }, {
            "code": "38",
            "display": "Other Government (Federal, State, Local not specified)"
          }, {
            "code": "381",
            "display": "Federal, State, Local not specified managed care"
          }, {
            "code": "3811",
            "display": "Federal, State, Local not specified - HMO"
          }, {
            "code": "3812",
            "display": "Federal, State, Local not specified - PPO"
          }, {
            "code": "3813",
            "display": "Federal, State, Local not specified - POS"
          }, {
            "code": "3819",
            "display": "Federal, State, Local not specified - not specified managed care"
          }, {
            "code": "382",
            "display": "Federal, State, Local not specified - FFS"
          }, {
            "code": "389",
            "display": "Federal, State, Local not specified - Other"
          }, {
            "code": "39",
            "display": "Other Federal"
          }, {
            "code": "391",
            "display": "Federal Employee Health Plan - Use when known"
          }, {
            "code": "4",
            "display": "DEPARTMENTS OF CORRECTIONS"
          }, {
            "code": "41",
            "display": "Corrections Federal"
          }, {
            "code": "42",
            "display": "Corrections State"
          }, {
            "code": "43",
            "display": "Corrections Local"
          }, {
            "code": "44",
            "display": "Corrections Unknown Level"
          }, {
            "code": "5",
            "display": "PRIVATE HEALTH INSURANCE"
          }, {
            "code": "51",
            "display": "Managed Care (Private)"
          }, {
            "code": "511",
            "display": "Commercial Managed Care - HMO"
          }, {
            "code": "512",
            "display": "Commercial Managed Care - PPO"
          }, {
            "code": "513",
            "display": "Commercial Managed Care - POS"
          }, {
            "code": "514",
            "display": "Exclusive Provider Organization"
          }, {
            "code": "515",
            "display": "Gatekeeper PPO (GPPO)"
          }, {
            "code": "516",
            "display": "Commercial Managed Care - Pharmacy Benefit Manager"
          }, {
            "code": "517",
            "display": "Commercial Managed Care - Dental"
          }, {
            "code": "519",
            "display": "Managed Care, Other (non HMO)"
          }, {
            "code": "52",
            "display": "Private Health Insurance - Indemnity"
          }, {
            "code": "521",
            "display": "Commercial Indemnity"
          }, {
            "code": "522",
            "display": "Self-insured (ERISA) Administrative Services Only (ASO) plan"
          }, {
            "code": "523",
            "display": "Medicare supplemental policy (as second payer)"
          }, {
            "code": "524",
            "display": "Indemnity Insurance - Dental"
          }, {
            "code": "529",
            "display": "Private health insurance--other commercial Indemnity"
          }, {
            "code": "53",
            "display": "Managed Care (private) or private health insurance (indemnity), not otherwise specified"
          }, {
            "code": "54",
            "display": "Organized Delivery System"
          }, {
            "code": "55",
            "display": "Small Employer Purchasing Group"
          }, {
            "code": "56",
            "display": "Specialized Stand Alone Plan"
          }, {
            "code": "561",
            "display": "Dental"
          }, {
            "code": "562",
            "display": "Vision"
          }, {
            "code": "59",
            "display": "Other Private Insurance"
          }, {
            "code": "6",
            "display": "BLUE CROSS/BLUE SHIELD"
          }, {
            "code": "61",
            "display": "BC Managed Care"
          }, {
            "code": "611",
            "display": "BC Managed Care -- HMO"
          }, {
            "code": "612",
            "display": "BC Managed Care -- PPO"
          }, {
            "code": "613",
            "display": "BC Managed Care -- POS"
          }, {
            "code": "614",
            "display": "BC Managed Care - Dental"
          }, {
            "code": "619",
            "display": "BC Managed Care -- Other"
          }, {
            "code": "62",
            "display": "BC Insurance Indemnity"
          }, {
            "code": "621",
            "display": "BC Indemnity"
          }, {
            "code": "622",
            "display": "BC Self-insured (ERISA) Administrative Services Only (ASO)Plan"
          }, {
            "code": "623",
            "display": "BC Medicare Supplemental Plan"
          }, {
            "code": "629",
            "display": "BC Indemnity - Dental"
          }, {
            "code": "7",
            "display": "MANAGED CARE, UNSPECIFIED (to be used only if one can't distinguish public from private)"
          }, {
            "code": "71",
            "display": "HMO"
          }, {
            "code": "72",
            "display": "PPO"
          }, {
            "code": "73",
            "display": "POS"
          }, {
            "code": "79",
            "display": "Other Managed Care"
          }, {
            "code": "8",
            "display": "NO PAYMENT from an Organization/Agency/Program/Private Payer Listed"
          }, {
            "code": "81",
            "display": "Self-pay (Includes applicants for insurance and Medicaid applicants)"
          }, {
            "code": "82",
            "display": "No Charge"
          }, {
            "code": "821",
            "display": "Charity"
          }, {
            "code": "822",
            "display": "Professional Courtesy"
          }, {
            "code": "823",
            "display": "Research/Clinical Trial"
          }, {
            "code": "83",
            "display": "Refusal to Pay/Bad Debt"
          }, {
            "code": "84",
            "display": "Hill Burton Free Care"
          }, {
            "code": "85",
            "display": "Research/Donor"
          }, {
            "code": "89",
            "display": "No Payment, Other"
          }, {
            "code": "9",
            "display": "MISCELLANEOUS/OTHER"
          }, {
            "code": "91",
            "display": "Foreign National"
          }, {
            "code": "92",
            "display": "Other (Non-government)"
          }, {
            "code": "93",
            "display": "Disability Insurance"
          }, {
            "code": "94",
            "display": "Long-term Care Insurance"
          }, {
            "code": "95",
            "display": "Worker's Compensation"
          }, {
            "code": "951",
            "display": "Worker's Comp HMO"
          }, {
            "code": "953",
            "display": "Worker's Comp Fee-for-Service"
          }, {
            "code": "954",
            "display": "Worker's Comp Other Managed Care"
          }, {
            "code": "959",
            "display": "Worker's Comp, Other unspecified"
          }, {
            "code": "96",
            "display": "Auto Insurance (includes no fault)"
          }, {
            "code": "97",
            "display": "Legal Liability / Liability Insurance"
          }, {
            "code": "98",
            "display": "Other specified but not otherwise classifiable (includes Hospice - Unspecified plan)"
          }, {
            "code": "99",
            "display": "No Typology Code available for payment source"
          }, {
            "code": "9999",
            "display": "Unavailable / No Payer Specified / Blank"
          } ]
        } ]
      }
    },
    "request": {
      "method": "PUT",
      "url": "ValueSet/2.16.840.1.114222.4.11.3591"
    }
  }, {
    "resource": {
      "resourceType": "Library",
      "id": "library-MATGlobalCommonFunctions-5.0.000",
      "extension": [ {
        "url": "http://hl7.org/fhir/us/cqfmeasures/StructureDefinition/cqfm-softwaresystem",
        "valueReference": {
          "reference": "#cqf-tooling"
        }
      } ],
      "url": "http://fhir.org/guides/dbcg/connectathon/Library/MATGlobalCommonFunctions",
      "version": "5.0.000",
      "name": "MATGlobalCommonFunctions",
      "status": "active",
      "experimental": true,
      "type": {
        "coding": [ {
          "system": "http://terminology.hl7.org/CodeSystem/library-type",
          "code": "logic-library"
        } ]
      },
      "relatedArtifact": [ {
        "type": "depends-on",
        "resource": "http://hl7.org/fhir/Library/FHIR-ModelInfo|4.0.1"
      }, {
        "type": "depends-on",
        "resource": "http://hl7.org/fhir/Library/FHIRHelpers|4.0.1"
      }, {
        "type": "depends-on",
        "resource": "http://loinc.org"
      }, {
        "type": "depends-on",
        "resource": "http://snomed.info/sct/731000124108"
      }, {
        "type": "depends-on",
        "resource": "http://hl7.org/fhir/v3/RoleCode"
      }, {
        "type": "depends-on",
        "resource": "http://terminology.hl7.org/CodeSystem/diagnosis-role"
      }, {
        "type": "depends-on",
        "resource": "http://terminology.hl7.org/CodeSystem/request-intent"
      }, {
        "type": "depends-on",
        "resource": "http://terminology.hl7.org/CodeSystem/medicationrequest-category"
      }, {
        "type": "depends-on",
        "resource": "http://terminology.hl7.org/CodeSystem/condition-clinical"
      }, {
        "type": "depends-on",
        "resource": "http://terminology.hl7.org/CodeSystem/condition-verification"
      }, {
        "type": "depends-on",
        "resource": "http://terminology.hl7.org/CodeSystem/allergyintolerance-clinical"
      }, {
        "type": "depends-on",
        "resource": "http://terminology.hl7.org/CodeSystem/allergyintolerance-verification"
      }, {
        "type": "depends-on",
        "resource": "http://cts.nlm.nih.gov/fhir/ValueSet/2.16.840.1.113883.3.666.5.307"
      }, {
        "type": "depends-on",
        "resource": "http://cts.nlm.nih.gov/fhir/ValueSet/2.16.840.1.113883.3.117.1.7.1.292"
      }, {
        "type": "depends-on",
        "resource": "http://cts.nlm.nih.gov/fhir/ValueSet/2.16.840.1.113762.1.4.1111.143"
      } ],
      "parameter": [ {
        "name": "Measurement Period",
        "use": "in",
        "min": 0,
        "max": "1",
        "type": "Period"
      }, {
        "name": "Patient",
        "use": "out",
        "min": 0,
        "max": "1",
        "type": "Patient"
      }, {
        "name": "Inpatient Encounter",
        "use": "out",
        "min": 0,
        "max": "*",
        "type": "Encounter"
      } ],
      "dataRequirement": [ {
        "type": "Encounter",
        "profile": [ "http://hl7.org/fhir/StructureDefinition/Encounter" ],
        "codeFilter": [ {
          "path": "type",
          "valueSet": "http://cts.nlm.nih.gov/fhir/ValueSet/2.16.840.1.113883.3.666.5.307"
        } ]
      }, {
        "type": "Encounter",
        "profile": [ "http://hl7.org/fhir/StructureDefinition/Encounter" ],
        "codeFilter": [ {
          "path": "type",
          "valueSet": "http://cts.nlm.nih.gov/fhir/ValueSet/2.16.840.1.113883.3.117.1.7.1.292"
        } ]
      }, {
        "type": "Encounter",
        "profile": [ "http://hl7.org/fhir/StructureDefinition/Encounter" ],
        "codeFilter": [ {
          "path": "type",
          "valueSet": "http://cts.nlm.nih.gov/fhir/ValueSet/2.16.840.1.113762.1.4.1111.143"
        } ]
      }, {
        "type": "Encounter",
        "profile": [ "http://hl7.org/fhir/StructureDefinition/Encounter" ],
        "codeFilter": [ {
          "path": "type",
          "valueSet": "http://cts.nlm.nih.gov/fhir/ValueSet/2.16.840.1.113883.3.117.1.7.1.292"
        } ]
      }, {
        "type": "Condition",
        "profile": [ "http://hl7.org/fhir/StructureDefinition/Condition" ]
      }, {
        "type": "Condition",
        "profile": [ "http://hl7.org/fhir/StructureDefinition/Condition" ]
      }, {
        "type": "Location",
        "profile": [ "http://hl7.org/fhir/StructureDefinition/Location" ]
      }, {
        "type": "Provenance",
        "profile": [ "http://hl7.org/fhir/StructureDefinition/Provenance" ],
        "codeFilter": [ {
          "path": "target"
        } ]
      }, {
        "type": "Medication",
        "profile": [ "http://hl7.org/fhir/StructureDefinition/Medication" ]
      } ],
      "content": [ {
        "contentType": "text/cql",
        "data": ""
      }, {
        "contentType": "application/elm+xml",
        "data": ""
      }, {
        "contentType": "application/elm+json",
        "data": ""
      } ]
    },
    "request": {
      "method": "PUT",
      "url": "Library/library-MATGlobalCommonFunctions-5.0.000"
    }
  }, {
    "resource": {
      "resourceType": "ValueSet",
      "id": "2.16.840.1.113883.3.666.5.307",
      "url": "http://cts.nlm.nih.gov/fhir/ValueSet/2.16.840.1.113883.3.666.5.307",
      "identifier": [ {
        "system": "urn:ietf:rfc:3986",
        "value": "2.16.840.1.113883.3.666.5.307"
      } ],
      "version": "20170504",
      "name": "EncounterInpatient",
      "title": "Encounter Inpatient",
      "status": "active",
      "publisher": "NLM",
      "compose": {
        "include": [ {
          "system": "http://snomed.info/sct",
          "version": "2018-03",
          "concept": [ {
            "code": "183452005",
            "display": "Emergency hospital admission (procedure)"
          }, {
            "code": "32485007",
            "display": "Hospital admission (procedure)"
          }, {
            "code": "8715000",
            "display": "Hospital admission, elective (procedure)"
          } ]
        } ]
      }
    },
    "request": {
      "method": "PUT",
      "url": "ValueSet/2.16.840.1.113883.3.666.5.307"
    }
  }, {
    "resource": {
      "resourceType": "Library",
      "id": "library-AdultOutpatientEncounters-2.0.000",
      "extension": [ {
        "url": "http://hl7.org/fhir/us/cqfmeasures/StructureDefinition/cqfm-softwaresystem",
        "valueReference": {
          "reference": "#cqf-tooling"
        }
      } ],
      "url": "http://fhir.org/guides/dbcg/connectathon/Library/AdultOutpatientEncounters",
      "version": "2.0.000",
      "name": "AdultOutpatientEncounters",
      "status": "active",
      "experimental": true,
      "type": {
        "coding": [ {
          "system": "http://terminology.hl7.org/CodeSystem/library-type",
          "code": "logic-library"
        } ]
      },
      "relatedArtifact": [ {
        "type": "depends-on",
        "resource": "http://hl7.org/fhir/Library/FHIR-ModelInfo|4.0.1"
      }, {
        "type": "depends-on",
        "resource": "http://hl7.org/fhir/Library/FHIRHelpers|4.0.1"
      }, {
        "type": "depends-on",
        "resource": "http://cts.nlm.nih.gov/fhir/ValueSet/2.16.840.1.113883.3.464.1003.101.12.1001"
      }, {
        "type": "depends-on",
        "resource": "http://cts.nlm.nih.gov/fhir/ValueSet/2.16.840.1.113883.3.526.3.1240"
      }, {
        "type": "depends-on",
        "resource": "http://cts.nlm.nih.gov/fhir/ValueSet/2.16.840.1.113883.3.464.1003.101.12.1025"
      }, {
        "type": "depends-on",
        "resource": "http://cts.nlm.nih.gov/fhir/ValueSet/2.16.840.1.113883.3.464.1003.101.12.1023"
      }, {
        "type": "depends-on",
        "resource": "http://cts.nlm.nih.gov/fhir/ValueSet/2.16.840.1.113883.3.464.1003.101.12.1016"
      } ],
      "parameter": [ {
        "name": "Measurement Period",
        "use": "in",
        "min": 0,
        "max": "1",
        "type": "Period"
      }, {
        "name": "Patient",
        "use": "out",
        "min": 0,
        "max": "1",
        "type": "Patient"
      }, {
        "name": "Qualifying Encounters",
        "use": "out",
        "min": 0,
        "max": "*",
        "type": "Encounter"
      } ],
      "dataRequirement": [ {
        "type": "Encounter",
        "profile": [ "http://hl7.org/fhir/StructureDefinition/Encounter" ],
        "codeFilter": [ {
          "path": "type",
          "valueSet": "http://cts.nlm.nih.gov/fhir/ValueSet/2.16.840.1.113883.3.464.1003.101.12.1001"
        } ]
      }, {
        "type": "Encounter",
        "profile": [ "http://hl7.org/fhir/StructureDefinition/Encounter" ],
        "codeFilter": [ {
          "path": "type",
          "valueSet": "http://cts.nlm.nih.gov/fhir/ValueSet/2.16.840.1.113883.3.526.3.1240"
        } ]
      }, {
        "type": "Encounter",
        "profile": [ "http://hl7.org/fhir/StructureDefinition/Encounter" ],
        "codeFilter": [ {
          "path": "type",
          "valueSet": "http://cts.nlm.nih.gov/fhir/ValueSet/2.16.840.1.113883.3.464.1003.101.12.1025"
        } ]
      }, {
        "type": "Encounter",
        "profile": [ "http://hl7.org/fhir/StructureDefinition/Encounter" ],
        "codeFilter": [ {
          "path": "type",
          "valueSet": "http://cts.nlm.nih.gov/fhir/ValueSet/2.16.840.1.113883.3.464.1003.101.12.1023"
        } ]
      }, {
        "type": "Encounter",
        "profile": [ "http://hl7.org/fhir/StructureDefinition/Encounter" ],
        "codeFilter": [ {
          "path": "type",
          "valueSet": "http://cts.nlm.nih.gov/fhir/ValueSet/2.16.840.1.113883.3.464.1003.101.12.1016"
        } ]
      } ],
      "content": [ {
        "contentType": "text/cql",
        "data": ""
      }, {
        "contentType": "application/elm+xml",
        "data": ""
      }, {
        "contentType": "application/elm+json",
        "data": ""
      } ]
    },
    "request": {
      "method": "PUT",
      "url": "Library/library-AdultOutpatientEncounters-2.0.000"
    }
  }, {
    "resource": {
      "resourceType": "ValueSet",
      "id": "2.16.840.1.113883.3.464.1003.108.12.1018",
      "url": "http://cts.nlm.nih.gov/fhir/ValueSet/2.16.840.1.113883.3.464.1003.108.12.1018",
      "identifier": [ {
        "system": "urn:ietf:rfc:3986",
        "value": "2.16.840.1.113883.3.464.1003.108.12.1018"
      } ],
      "version": "20171222",
      "name": "Mammography",
      "title": "Mammography",
      "status": "active",
      "publisher": "NLM",
      "compose": {
        "include": [ {
          "system": "https://www.cms.gov/Medicare/Coding/MedHCPCSGenInfo/index.html",
          "version": "2017",
          "concept": [ {
            "code": "G0202",
            "display": "Screening mammography, bilateral (2-view study of each breast), including computer-aided detection (cad) when performed"
          }, {
            "code": "G0204",
            "display": "Diagnostic mammography, including computer-aided detection (cad) when performed; bilateral"
          }, {
            "code": "G0206",
            "display": "Diagnostic mammography, including computer-aided detection (cad) when performed; unilateral"
          } ]
        }, {
          "system": "http://loinc.org",
          "version": "2.58",
          "concept": [ {
            "code": "38067-5",
            "display": "Breast - bilateral Mammogram nipple profile"
          } ]
        }, {
          "system": "http://loinc.org",
          "version": "2.64",
          "concept": [ {
            "code": "24604-1",
            "display": "MG Breast Diagnostic Limited Views"
          }, {
            "code": "24605-8",
            "display": "MG Breast Diagnostic"
          }, {
            "code": "24606-6",
            "display": "MG Breast Screening"
          }, {
            "code": "24610-8",
            "display": "MG Breast Limited Views"
          }, {
            "code": "26175-0",
            "display": "MG Breast - bilateral Screening"
          }, {
            "code": "26176-8",
            "display": "MG Breast - left Screening"
          }, {
            "code": "26177-6",
            "display": "MG Breast - right Screening"
          }, {
            "code": "26287-3",
            "display": "MG Breast - bilateral Limited Views"
          }, {
            "code": "26289-9",
            "display": "MG Breast - left Limited Views"
          }, {
            "code": "26291-5",
            "display": "MG Breast - right Limited Views"
          }, {
            "code": "26346-7",
            "display": "MG Breast - bilateral Diagnostic"
          }, {
            "code": "26347-5",
            "display": "MG Breast - left Diagnostic"
          }, {
            "code": "26348-3",
            "display": "MG Breast - right Diagnostic"
          }, {
            "code": "26349-1",
            "display": "MG Breast - bilateral Diagnostic Limited Views"
          }, {
            "code": "26350-9",
            "display": "MG Breast - left Diagnostic Limited Views"
          }, {
            "code": "26351-7",
            "display": "MG Breast - right Diagnostic Limited Views"
          }, {
            "code": "36319-2",
            "display": "MG Breast 4 Views"
          }, {
            "code": "36625-2",
            "display": "MG Breast Views"
          }, {
            "code": "36626-0",
            "display": "MG Breast - bilateral Views"
          }, {
            "code": "36627-8",
            "display": "MG Breast - left Views"
          }, {
            "code": "36642-7",
            "display": "MG Breast - left 2 Views"
          }, {
            "code": "36962-9",
            "display": "MG Breast Axillary"
          }, {
            "code": "37005-6",
            "display": "MG Breast - left Magnification"
          }, {
            "code": "37006-4",
            "display": "MG Breast - bilateral MLO"
          }, {
            "code": "37016-3",
            "display": "MG Breast - bilateral Rolled Views"
          }, {
            "code": "37017-1",
            "display": "MG Breast - left Rolled Views"
          }, {
            "code": "37028-8",
            "display": "MG Breast Tangential"
          }, {
            "code": "37029-6",
            "display": "MG Breast - bilateral Tangential"
          }, {
            "code": "37030-4",
            "display": "MG Breast - left Tangential"
          }, {
            "code": "37037-9",
            "display": "MG Breast True lateral"
          }, {
            "code": "37038-7",
            "display": "MG Breast - bilateral True lateral"
          }, {
            "code": "37052-8",
            "display": "MG Breast - bilateral XCCL"
          }, {
            "code": "37053-6",
            "display": "MG Breast - left XCCL"
          }, {
            "code": "37539-4",
            "display": "MG Breast Grid Views"
          }, {
            "code": "37542-8",
            "display": "MG Breast Magnification Views"
          }, {
            "code": "37543-6",
            "display": "MG Breast - bilateral Magnification Views"
          }, {
            "code": "37551-9",
            "display": "MG Breast Spot Views"
          }, {
            "code": "37552-7",
            "display": "MG Breast - bilateral Spot Views"
          }, {
            "code": "37553-5",
            "display": "MG Breast - left Spot Views compression"
          }, {
            "code": "37554-3",
            "display": "MG Breast - bilateral Magnification and Spot"
          }, {
            "code": "37768-9",
            "display": "MG Breast - right 2 Views"
          }, {
            "code": "37769-7",
            "display": "MG Breast - right Magnification and Spot"
          }, {
            "code": "37770-5",
            "display": "MG Breast - right Tangential"
          }, {
            "code": "37771-3",
            "display": "MG Breast - right True lateral"
          }, {
            "code": "37772-1",
            "display": "MG Breast - right XCCL"
          }, {
            "code": "37773-9",
            "display": "MG Breast - right Magnification"
          }, {
            "code": "37774-7",
            "display": "MG Breast - right Views"
          }, {
            "code": "37775-4",
            "display": "MG Breast - right Rolled Views"
          }, {
            "code": "38070-9",
            "display": "MG Breast Views for implant"
          }, {
            "code": "38071-7",
            "display": "MG Breast - bilateral Views for implant"
          }, {
            "code": "38072-5",
            "display": "MG Breast - left Views for implant"
          }, {
            "code": "38090-7",
            "display": "MG Breast - bilateral Air gap Views"
          }, {
            "code": "38091-5",
            "display": "MG Breast - left Air gap Views"
          }, {
            "code": "38807-4",
            "display": "MG Breast - right Spot Views"
          }, {
            "code": "38820-7",
            "display": "MG Breast - right Views for implant"
          }, {
            "code": "38854-6",
            "display": "MG Breast - left Magnification and Spot"
          }, {
            "code": "38855-3",
            "display": "MG Breast - left True lateral"
          }, {
            "code": "39150-8",
            "display": "FFD mammogram Breast Views Post Localization"
          }, {
            "code": "39152-4",
            "display": "FFD mammogram Breast Diagnostic"
          }, {
            "code": "39153-2",
            "display": "FFD mammogram Breast Screening"
          }, {
            "code": "39154-0",
            "display": "FFD mammogram Breast - bilateral Diagnostic"
          }, {
            "code": "42168-5",
            "display": "FFD mammogram Breast - right Diagnostic"
          }, {
            "code": "42169-3",
            "display": "FFD mammogram Breast - left Diagnostic"
          }, {
            "code": "42174-3",
            "display": "FFD mammogram Breast - bilateral Screening"
          }, {
            "code": "42415-0",
            "display": "MG Breast - bilateral Views Post Wire Placement"
          }, {
            "code": "42416-8",
            "display": "MG Breast - left Views Post Wire Placement"
          }, {
            "code": "46335-6",
            "display": "MG Breast - bilateral Single view"
          }, {
            "code": "46336-4",
            "display": "MG Breast - left Single view"
          }, {
            "code": "46337-2",
            "display": "MG Breast - right Single view"
          }, {
            "code": "46338-0",
            "display": "MG Breast - unilateral Single view"
          }, {
            "code": "46339-8",
            "display": "MG Breast - unilateral Views"
          }, {
            "code": "46342-2",
            "display": "FFD mammogram Breast Views"
          }, {
            "code": "46350-5",
            "display": "MG Breast - unilateral Diagnostic"
          }, {
            "code": "46351-3",
            "display": "MG Breast - bilateral Displacement Views for Implant"
          }, {
            "code": "46354-7",
            "display": "FFD mammogram Breast - right Screening"
          }, {
            "code": "46355-4",
            "display": "FFD mammogram Breast - left Screening"
          }, {
            "code": "46356-2",
            "display": "MG Breast - unilateral Screening"
          }, {
            "code": "46380-2",
            "display": "MG Breast - unilateral Views for implant"
          }, {
            "code": "48475-8",
            "display": "MG Breast - bilateral Diagnostic for implant"
          }, {
            "code": "48492-3",
            "display": "MG Breast - bilateral Screening for implant"
          }, {
            "code": "69150-1",
            "display": "MG Breast - left Diagnostic for implant"
          }, {
            "code": "69251-7",
            "display": "MG Breast Views Post Wire Placement"
          }, {
            "code": "69259-0",
            "display": "MG Breast - right Diagnostic for implant"
          }, {
            "code": "72137-3",
            "display": "DBT Breast - right diagnostic"
          }, {
            "code": "72138-1",
            "display": "DBT Breast - left diagnostic"
          }, {
            "code": "72139-9",
            "display": "DBT Breast - bilateral diagnostic"
          }, {
            "code": "72140-7",
            "display": "DBT Breast - right screening"
          }, {
            "code": "72141-5",
            "display": "DBT Breast - left screening"
          }, {
            "code": "72142-3",
            "display": "DBT Breast - bilateral screening"
          }, {
            "code": "86462-9",
            "display": "DBT Breast - unilateral"
          }, {
            "code": "86463-7",
            "display": "DBT Breast - bilateral"
          } ]
        } ]
      }
    },
    "request": {
      "method": "PUT",
      "url": "ValueSet/2.16.840.1.113883.3.464.1003.108.12.1018"
    }
  }, {
    "resource": {
      "resourceType": "ValueSet",
      "id": "2.16.840.1.113883.3.464.1003.198.12.1068",
      "url": "http://cts.nlm.nih.gov/fhir/ValueSet/2.16.840.1.113883.3.464.1003.198.12.1068",
      "identifier": [ {
        "system": "urn:ietf:rfc:3986",
        "value": "2.16.840.1.113883.3.464.1003.198.12.1068"
      } ],
      "version": "20171219",
      "name": "Historyofbilateralmastectomy",
      "title": "History of bilateral mastectomy",
      "status": "active",
      "publisher": "NLM",
      "compose": {
        "include": [ {
          "system": "http://hl7.org/fhir/sid/icd-10",
          "version": "2019",
          "concept": [ {
            "code": "Z90.13",
            "display": "Acquired absence of bilateral breasts and nipples"
          } ]
        }, {
          "system": "http://snomed.info/sct",
          "version": "2018-03",
          "concept": [ {
            "code": "136071000119101",
            "display": "History of bilateral prophylactic mastectomy (situation)"
          }, {
            "code": "428529004",
            "display": "History of bilateral mastectomy (situation)"
          } ]
        } ]
      }
    },
    "request": {
      "method": "PUT",
      "url": "ValueSet/2.16.840.1.113883.3.464.1003.198.12.1068"
    }
  }, {
    "resource": {
      "resourceType": "ValueSet",
      "id": "2.16.840.1.113883.3.117.1.7.1.292",
      "url": "http://cts.nlm.nih.gov/fhir/ValueSet/2.16.840.1.113883.3.117.1.7.1.292",
      "title": "Emergency Department Visit",
      "status": "active",
      "publisher": "The Joint Commission",
      "compose": {
        "include": [ {
          "system": "http://snomed.info/sct",
          "version": "2019-03",
          "concept": [ {
            "code": "4525004",
            "display": "Emergency department patient visit (procedure)"
          } ]
        } ]
      }
    },
    "request": {
      "method": "PUT",
      "url": "ValueSet/2.16.840.1.113883.3.117.1.7.1.292"
    }
  }, {
    "resource": {
      "resourceType": "Library",
      "id": "FHIR-ModelInfo",
      "extension": [ {
        "url": "http://hl7.org/fhir/us/cqfmeasures/StructureDefinition/cqfm-softwaresystem",
        "valueReference": {
          "reference": "#cqf-tooling"
        }
      } ],
      "url": "http://hl7.org/fhir/Library/FHIR-ModelInfo",
      "identifier": [ {
        "use": "official",
        "system": "http://example.org/fhir/cqi/ecqm/Library/Identifier",
        "value": "FHIR"
      } ],
      "version": "4.0.1",
      "name": "FHIR",
      "title": "FHIR Model Definition",
      "status": "active",
      "type": {
        "coding": [ {
          "system": "http://terminology.hl7.org/CodeSystem/library-type",
          "code": "model-definition"
        } ]
      },
      "date": "2019-08-08",
      "publisher": "Health Level 7 International - Clinical Quality Information Work Group",
      "contact": [ {
        "telecom": [ {
          "system": "url",
          "value": "http://www.hl7.org/Special/committees/cqi/index.cfm"
        } ]
      } ],
      "description": "Model definition for the FHIR R4 (v4.0.1) Model",
      "jurisdiction": [ {
        "coding": [ {
          "system": "http://unstats.un.org/unsd/methods/m49/m49.htm",
          "code": "001"
        } ]
      } ],
      "approvalDate": "2019-08-08",
      "lastReviewDate": "2020-06-19",
      "topic": [ {
        "text": "FHIR"
      } ],
      "content": [ {
        "contentType": "application/xml",
        "url": "https://github.com/cqframework/clinical_quality_language/blob/master/Src/java/quick/src/main/resources/org/hl7/fhir/fhir-modelinfo-4.0.1.xml"
      } ]
    },
    "request": {
      "method": "PUT",
      "url": "Library/FHIR-ModelInfo"
    }
  }, {
    "resource": {
      "resourceType": "Library",
      "id": "library-FHIRHelpers-4.0.1",
      "extension": [ {
        "url": "http://hl7.org/fhir/us/cqfmeasures/StructureDefinition/cqfm-softwaresystem",
        "valueReference": {
          "reference": "#cqf-tooling"
        }
      } ],
      "url": "http://hl7.org/fhir/Library/FHIRHelpers",
      "version": "4.0.1",
      "name": "FHIRHelpers",
      "status": "active",
      "experimental": true,
      "type": {
        "coding": [ {
          "system": "http://terminology.hl7.org/CodeSystem/library-type",
          "code": "logic-library"
        } ]
      },
      "relatedArtifact": [ {
        "type": "depends-on",
        "resource": "http://hl7.org/fhir/Library/FHIR-ModelInfo|4.0.1"
      } ],
      "content": [ {
        "contentType": "text/cql",
        "data": ""
      }, {
        "contentType": "application/elm+xml",
        "data": ""
      }, {
        "contentType": "application/elm+json",
        "data": ""
      } ]
    },
    "request": {
      "method": "PUT",
      "url": "Library/library-FHIRHelpers-4.0.1"
    }
  }, {
    "resource": {
      "resourceType": "ValueSet",
      "id": "2.16.840.1.113883.3.464.1003.198.12.1005",
      "url": "http://cts.nlm.nih.gov/fhir/ValueSet/2.16.840.1.113883.3.464.1003.198.12.1005",
      "identifier": [ {
        "system": "urn:ietf:rfc:3986",
        "value": "2.16.840.1.113883.3.464.1003.198.12.1005"
      } ],
      "version": "20171219",
      "name": "BilateralMastectomy",
      "title": "Bilateral Mastectomy",
      "status": "active",
      "publisher": "NLM",
      "compose": {
        "include": [ {
          "system": "http://snomed.info/sct",
          "version": "2018-03",
          "concept": [ {
            "code": "14693006",
            "display": "Bilateral subcutaneous mammectomy (procedure)"
          }, {
            "code": "14714006",
            "display": "Bilateral mastectomy with excision of bilateral regional lymph nodes (procedure)"
          }, {
            "code": "17086001",
            "display": "Modified radical mastectomy, bilateral (procedure)"
          }, {
            "code": "22418005",
            "display": "Bilateral simple mastectomy (procedure)"
          }, {
            "code": "27865001",
            "display": "Bilateral mastectomy (procedure)"
          }, {
            "code": "456903003",
            "display": "Bilateral extended radical mastectomy (procedure)"
          }, {
            "code": "52314009",
            "display": "Bilateral mastectomy extended simple (procedure)"
          }, {
            "code": "60633004",
            "display": "Bilateral subcutaneous mammectomy with synchronous implant (procedure)"
          }, {
            "code": "726636007",
            "display": "Prophylactic bilateral mastectomy (procedure)"
          }, {
            "code": "76468001",
            "display": "Bilateral radical mastectomy (procedure)"
          } ]
        } ]
      }
    },
    "request": {
      "method": "PUT",
      "url": "ValueSet/2.16.840.1.113883.3.464.1003.198.12.1005"
    }
  }, {
    "resource": {
      "resourceType": "ValueSet",
      "id": "2.16.840.1.113883.3.464.1003.198.12.1069",
      "url": "http://cts.nlm.nih.gov/fhir/ValueSet/2.16.840.1.113883.3.464.1003.198.12.1069",
      "identifier": [ {
        "system": "urn:ietf:rfc:3986",
        "value": "2.16.840.1.113883.3.464.1003.198.12.1069"
      } ],
      "version": "20171216",
      "name": "StatusPostLeftMastectomy",
      "title": "Status Post Left Mastectomy",
      "status": "active",
      "publisher": "NLM",
      "compose": {
        "include": [ {
          "system": "http://hl7.org/fhir/sid/icd-10",
          "version": "2019",
          "concept": [ {
            "code": "Z90.12",
            "display": "Acquired absence of left breast and nipple"
          } ]
        }, {
          "system": "http://snomed.info/sct",
          "version": "2018-03",
          "concept": [ {
            "code": "137671000119105",
            "display": "History of prophylactic mastectomy of left breast (situation)"
          }, {
            "code": "429009003",
            "display": "History of left mastectomy (situation)"
          } ]
        } ]
      }
    },
    "request": {
      "method": "PUT",
      "url": "ValueSet/2.16.840.1.113883.3.464.1003.198.12.1069"
    }
  } ]
}