{
  "resourceType": "Bundle",
  "id": "bundle-references",
  "type": "collection",
  "entry": [
    {
      "fullUrl": "http://example.org/fhir/Patient/23",
      "resource": {
        "resourceType": "Patient",
        "id": "23",
        "text": {
          "status": "generated",
          "div": "\u003cdiv xmlns\u003d\"http://www.w3.org/1999/xhtml\"\u003e\u003cp\u003e\u003cb\u003eGenerated Narrative with Details\u003c/b\u003e\u003c/p\u003e\u003cp\u003e\u003cb\u003eid\u003c/b\u003e: 23\u003c/p\u003e\u003cp\u003e\u003cb\u003eidentifier\u003c/b\u003e: 1234567\u003c/p\u003e\u003c/div\u003e"
        },
        "identifier": [
          {
            "system": "http://example.org/ids",
            "value": "1234567"
          }
        ]
      }
    },
    {
      "fullUrl": "urn:uuid:04121321-4af5-424c-a0e1-ed3aab1c349d",
      "resource": {
        "resourceType": "Patient",
        "text": {
          "status": "generated",
          "div": "\u003cdiv xmlns\u003d\"http://www.w3.org/1999/xhtml\"\u003e\u003cp\u003e\u003cb\u003eGenerated Narrative with Details\u003c/b\u003e\u003c/p\u003e\u003c/div\u003e"
        }
      }
    },
    {
      "fullUrl": "http://example.org/fhir/Observation/123",
      "resource": {
        "resourceType": "Observation",
        "id": "123",
        "text": {
          "status": "generated",
          "div": "\u003cdiv xmlns\u003d\"http://www.w3.org/1999/xhtml\"\u003e\u003cp\u003e\u003cb\u003eGenerated Narrative with Details\u003c/b\u003e\u003c/p\u003e\u003cp\u003e\u003cb\u003eid\u003c/b\u003e: 123\u003c/p\u003e\u003cp\u003e\u003cb\u003estatus\u003c/b\u003e: final\u003c/p\u003e\u003cp\u003e\u003cb\u003ecode\u003c/b\u003e: Glucose [Moles/volume] in Blood \u003cspan\u003e(Details : {LOINC code \u002715074-8\u0027 \u003d \u0027Glucose [Moles/volume] in Blood\u0027, given as \u0027Glucose [Moles/volume] in Blood\u0027})\u003c/span\u003e\u003c/p\u003e\u003cp\u003e\u003cb\u003esubject\u003c/b\u003e: \u003ca\u003ePatient/23\u003c/a\u003e\u003c/p\u003e\u003c/div\u003e"
        },
        "status": "final",
        "code": {
          "coding": [
            {
              "system": "http://loinc.org",
              "code": "15074-8",
              "display": "Glucose [Moles/volume] in Blood"
            }
          ]
        },
        "subject": {
          "reference": "Patient/23"
        }
      }
    },
    {
      "fullUrl": "http://example.org/fhir/Observation/124",
      "resource": {
        "resourceType": "Observation",
        "id": "124",
        "text": {
          "status": "generated",
          "div": "\u003cdiv xmlns\u003d\"http://www.w3.org/1999/xhtml\"\u003e\u003cp\u003e\u003cb\u003eGenerated Narrative with Details\u003c/b\u003e\u003c/p\u003e\u003cp\u003e\u003cb\u003eid\u003c/b\u003e: 124\u003c/p\u003e\u003cp\u003e\u003cb\u003estatus\u003c/b\u003e: final\u003c/p\u003e\u003cp\u003e\u003cb\u003ecode\u003c/b\u003e: Glucose [Moles/volume] in Blood \u003cspan\u003e(Details : {LOINC code \u002715074-8\u0027 \u003d \u0027Glucose [Moles/volume] in Blood\u0027, given as \u0027Glucose [Moles/volume] in Blood\u0027})\u003c/span\u003e\u003c/p\u003e\u003cp\u003e\u003cb\u003esubject\u003c/b\u003e: \u003ca\u003ehttp://example.org/fhir/Patient/23\u003c/a\u003e\u003c/p\u003e\u003c/div\u003e"
        },
        "status": "final",
        "code": {
          "coding": [
            {
              "system": "http://loinc.org",
              "code": "15074-8",
              "display": "Glucose [Moles/volume] in Blood"
            }
          ]
        },
        "subject": {
          "reference": "http://example.org/fhir/Patient/23"
        }
      }
    },
    {
      "fullUrl": "http://example.org/fhir/Observation/12",
      "resource": {
        "resourceType": "Observation",
        "id": "12",
        "text": {
          "status": "generated",
          "div": "\u003cdiv xmlns\u003d\"http://www.w3.org/1999/xhtml\"\u003e\u003cp\u003e\u003cb\u003eGenerated Narrative with Details\u003c/b\u003e\u003c/p\u003e\u003cp\u003e\u003cb\u003eid\u003c/b\u003e: 12\u003c/p\u003e\u003cp\u003e\u003cb\u003estatus\u003c/b\u003e: final\u003c/p\u003e\u003cp\u003e\u003cb\u003ecode\u003c/b\u003e: Glucose [Moles/volume] in Blood \u003cspan\u003e(Details : {LOINC code \u002715074-8\u0027 \u003d \u0027Glucose [Moles/volume] in Blood\u0027, given as \u0027Glucose [Moles/volume] in Blood\u0027})\u003c/span\u003e\u003c/p\u003e\u003cp\u003e\u003cb\u003esubject\u003c/b\u003e: \u003ca\u003eurn:uuid:04121321-4af5-424c-a0e1-ed3aab1c349d\u003c/a\u003e\u003c/p\u003e\u003c/div\u003e"
        },
        "status": "final",
        "code": {
          "coding": [
            {
              "system": "http://loinc.org",
              "code": "15074-8",
              "display": "Glucose [Moles/volume] in Blood"
            }
          ]
        },
        "subject": {
          "reference": "urn:uuid:04121321-4af5-424c-a0e1-ed3aab1c349d"
        }
      }
    },
    {
      "fullUrl": "http://example.org/fhir/Observation/14",
      "resource": {
        "resourceType": "Observation",
        "id": "14",
        "text": {
          "status": "generated",
          "div": "\u003cdiv xmlns\u003d\"http://www.w3.org/1999/xhtml\"\u003e\u003cp\u003e\u003cb\u003eGenerated Narrative with Details\u003c/b\u003e\u003c/p\u003e\u003cp\u003e\u003cb\u003eid\u003c/b\u003e: 14\u003c/p\u003e\u003cp\u003e\u003cb\u003estatus\u003c/b\u003e: final\u003c/p\u003e\u003cp\u003e\u003cb\u003ecode\u003c/b\u003e: Glucose [Moles/volume] in Blood \u003cspan\u003e(Details : {LOINC code \u002715074-8\u0027 \u003d \u0027Glucose [Moles/volume] in Blood\u0027, given as \u0027Glucose [Moles/volume] in Blood\u0027})\u003c/span\u003e\u003c/p\u003e\u003cp\u003e\u003cb\u003esubject\u003c/b\u003e: \u003ca\u003ehttp://example.org/fhir-2/Patient/1\u003c/a\u003e\u003c/p\u003e\u003c/div\u003e"
        },
        "status": "final",
        "code": {
          "coding": [
            {
              "system": "http://loinc.org",
              "code": "15074-8",
              "display": "Glucose [Moles/volume] in Blood"
            }
          ]
        },
        "subject": {
          "reference": "http://example.org/fhir-2/Patient/1"
        }
      }
    },
    {
      "fullUrl": "http://example.org/fhir-2/Observation/14",
      "resource": {
        "resourceType": "Observation",
        "id": "14",
        "text": {
          "status": "generated",
          "div": "\u003cdiv xmlns\u003d\"http://www.w3.org/1999/xhtml\"\u003e\u003cp\u003e\u003cb\u003eGenerated Narrative with Details\u003c/b\u003e\u003c/p\u003e\u003cp\u003e\u003cb\u003eid\u003c/b\u003e: 14\u003c/p\u003e\u003cp\u003e\u003cb\u003estatus\u003c/b\u003e: final\u003c/p\u003e\u003cp\u003e\u003cb\u003ecode\u003c/b\u003e: Glucose [Moles/volume] in Blood \u003cspan\u003e(Details : {LOINC code \u002715074-8\u0027 \u003d \u0027Glucose [Moles/volume] in Blood\u0027, given as \u0027Glucose [Moles/volume] in Blood\u0027})\u003c/span\u003e\u003c/p\u003e\u003cp\u003e\u003cb\u003esubject\u003c/b\u003e: \u003ca\u003ePatient/23\u003c/a\u003e\u003c/p\u003e\u003c/div\u003e"
        },
        "status": "final",
        "code": {
          "coding": [
            {
              "system": "http://loinc.org",
              "code": "15074-8",
              "display": "Glucose [Moles/volume] in Blood"
            }
          ]
        },
        "subject": {
          "reference": "Patient/23"
        }
      }
    },
    {
      "fullUrl": "http://example.org/fhir/Patient/45",
      "resource": {
        "resourceType": "Patient",
        "id": "45",
        "meta": {
          "versionId": "1"
        },
        "text": {
          "status": "generated",
          "div": "\u003cdiv xmlns\u003d\"http://www.w3.org/1999/xhtml\"\u003e\u003cp\u003e\u003cb\u003eGenerated Narrative with Details\u003c/b\u003e\u003c/p\u003e\u003cp\u003e\u003cb\u003eid\u003c/b\u003e: 45\u003c/p\u003e\u003cp\u003e\u003cb\u003emeta\u003c/b\u003e: \u003c/p\u003e\u003cp\u003e\u003cb\u003ename\u003c/b\u003e: Name 1\u003c/p\u003e\u003c/div\u003e"
        },
        "name": [
          {
            "text": "Name 1"
          }
        ]
      }
    },
    {
      "fullUrl": "http://example.org/fhir/Patient/45",
      "resource": {
        "resourceType": "Patient",
        "id": "45",
        "meta": {
          "versionId": "2"
        },
        "text": {
          "status": "generated",
          "div": "\u003cdiv xmlns\u003d\"http://www.w3.org/1999/xhtml\"\u003e\u003cp\u003e\u003cb\u003eGenerated Narrative with Details\u003c/b\u003e\u003c/p\u003e\u003cp\u003e\u003cb\u003eid\u003c/b\u003e: 45\u003c/p\u003e\u003cp\u003e\u003cb\u003emeta\u003c/b\u003e: \u003c/p\u003e\u003cp\u003e\u003cb\u003ename\u003c/b\u003e: Name 2\u003c/p\u003e\u003c/div\u003e"
        },
        "name": [
          {
            "text": "Name 2"
          }
        ]
      }
    },
    {
      "fullUrl": "http://example.org/fhir/Observation/47",
      "resource": {
        "resourceType": "Observation",
        "id": "47",
        "text": {
          "status": "generated",
          "div": "\u003cdiv xmlns\u003d\"http://www.w3.org/1999/xhtml\"\u003e\u003cp\u003e\u003cb\u003eGenerated Narrative with Details\u003c/b\u003e\u003c/p\u003e\u003cp\u003e\u003cb\u003eid\u003c/b\u003e: 47\u003c/p\u003e\u003cp\u003e\u003cb\u003estatus\u003c/b\u003e: final\u003c/p\u003e\u003cp\u003e\u003cb\u003ecode\u003c/b\u003e: Glucose [Moles/volume] in Blood \u003cspan\u003e(Details : {LOINC code \u002715074-8\u0027 \u003d \u0027Glucose [Moles/volume] in Blood\u0027, given as \u0027Glucose [Moles/volume] in Blood\u0027})\u003c/span\u003e\u003c/p\u003e\u003cp\u003e\u003cb\u003esubject\u003c/b\u003e: \u003ca\u003ePatient/45/_history/2\u003c/a\u003e\u003c/p\u003e\u003c/div\u003e"
        },
        "status": "final",
        "code": {
          "coding": [
            {
              "system": "http://loinc.org",
              "code": "15074-8",
              "display": "Glucose [Moles/volume] in Blood"
            }
          ]
        },
        "subject": {
          "reference": "Patient/45/_history/2"
        }
      }
    },
    {
      "fullUrl": "http://example.org/fhir/Observation/48",
      "resource": {
        "resourceType": "Observation",
        "id": "48",
        "text": {
          "status": "generated",
          "div": "\u003cdiv xmlns\u003d\"http://www.w3.org/1999/xhtml\"\u003e\u003cp\u003e\u003cb\u003eGenerated Narrative with Details\u003c/b\u003e\u003c/p\u003e\u003cp\u003e\u003cb\u003eid\u003c/b\u003e: 48\u003c/p\u003e\u003cp\u003e\u003cb\u003estatus\u003c/b\u003e: final\u003c/p\u003e\u003cp\u003e\u003cb\u003ecode\u003c/b\u003e: Glucose [Moles/volume] in Blood \u003cspan\u003e(Details : {LOINC code \u002715074-8\u0027 \u003d \u0027Glucose [Moles/volume] in Blood\u0027, given as \u0027Glucose [Moles/volume] in Blood\u0027})\u003c/span\u003e\u003c/p\u003e\u003cp\u003e\u003cb\u003esubject\u003c/b\u003e: \u003c/p\u003e\u003c/div\u003e"
        },
        "status": "final",
        "code": {
          "coding": [
            {
              "system": "http://loinc.org",
              "code": "15074-8",
              "display": "Glucose [Moles/volume] in Blood"
            }
          ]
        },
        "subject": {
          "identifier": {
            "system": "http://example.org/ids",
            "value": "1234567"
          }
        }
      }
    }
  ],
  "meta": {
    "tag": [
      {
        "system": "http://terminology.hl7.org/CodeSystem/v3-ActReason",
        "code": "HTEST",
        "display": "test health data"
      }
    ]
  }
}