{
  "resourceType": "CarePlan",
  "id": "f201",
  "text": {
    "status": "generated",
    "div": "\u003cdiv xmlns\u003d\"http://www.w3.org/1999/xhtml\"\u003e\u003cp\u003e\u003cb\u003eGenerated Narrative with Details\u003c/b\u003e\u003c/p\u003e\u003cp\u003e\u003cb\u003eid\u003c/b\u003e: f201\u003c/p\u003e\u003cp\u003e\u003cb\u003econtained\u003c/b\u003e: , \u003c/p\u003e\u003cp\u003e\u003cb\u003estatus\u003c/b\u003e: draft\u003c/p\u003e\u003cp\u003e\u003cb\u003eintent\u003c/b\u003e: proposal\u003c/p\u003e\u003cp\u003e\u003cb\u003esubject\u003c/b\u003e: \u003ca\u003eRoel\u003c/a\u003e\u003c/p\u003e\u003cp\u003e\u003cb\u003eperiod\u003c/b\u003e: 11/03/2013 --\u0026gt; 13/03/2013\u003c/p\u003e\u003cp\u003e\u003cb\u003ecareTeam\u003c/b\u003e: id: careteam\u003c/p\u003e\u003cp\u003e\u003cb\u003eaddresses\u003c/b\u003e: \u003ca\u003eRoel\u0027s renal insufficiency\u003c/a\u003e\u003c/p\u003e\u003cp\u003e\u003cb\u003egoal\u003c/b\u003e: id: goal; lifecycleStatus: completed; Achieved \u003cspan\u003e(Details : {http://terminology.hl7.org/CodeSystem/goal-achievement code \u0027achieved\u0027 \u003d \u0027Achieved\u0027, given as \u0027Achieved\u0027})\u003c/span\u003e; Re-established renal function with at least healthy nutrients. \u003cspan\u003e(Details )\u003c/span\u003e\u003c/p\u003e\u003cblockquote\u003e\u003cp\u003e\u003cb\u003eactivity\u003c/b\u003e\u003c/p\u003e\u003ch3\u003eDetails\u003c/h3\u003e\u003ctable\u003e\u003ctr\u003e\u003ctd\u003e-\u003c/td\u003e\u003ctd\u003e\u003cb\u003eKind\u003c/b\u003e\u003c/td\u003e\u003ctd\u003e\u003cb\u003eCode\u003c/b\u003e\u003c/td\u003e\u003ctd\u003e\u003cb\u003eStatus\u003c/b\u003e\u003c/td\u003e\u003ctd\u003e\u003cb\u003eDoNotPerform\u003c/b\u003e\u003c/td\u003e\u003ctd\u003e\u003cb\u003eScheduled[x]\u003c/b\u003e\u003c/td\u003e\u003ctd\u003e\u003cb\u003eProduct[x]\u003c/b\u003e\u003c/td\u003e\u003ctd\u003e\u003cb\u003eDailyAmount\u003c/b\u003e\u003c/td\u003e\u003c/tr\u003e\u003ctr\u003e\u003ctd\u003e*\u003c/td\u003e\u003ctd\u003eNutritionOrder\u003c/td\u003e\u003ctd\u003ePotassium supplementation \u003cspan\u003e(Details : {SNOMED CT code \u0027284093001\u0027 \u003d \u0027Potassium supplementation\u0027, given as \u0027Potassium supplementation\u0027})\u003c/span\u003e\u003c/td\u003e\u003ctd\u003ecompleted\u003c/td\u003e\u003ctd\u003efalse\u003c/td\u003e\u003ctd\u003edaily\u003c/td\u003e\u003ctd\u003e\u003ca\u003ePotassium\u003c/a\u003e\u003c/td\u003e\u003ctd\u003e80 mmol\u003cspan\u003e (Details: SNOMED CT code 258718000 \u003d \u0027millimole\u0027)\u003c/span\u003e\u003c/td\u003e\u003c/tr\u003e\u003c/table\u003e\u003c/blockquote\u003e\u003cblockquote\u003e\u003cp\u003e\u003cb\u003eactivity\u003c/b\u003e\u003c/p\u003e\u003ch3\u003eDetails\u003c/h3\u003e\u003ctable\u003e\u003ctr\u003e\u003ctd\u003e-\u003c/td\u003e\u003ctd\u003e\u003cb\u003eKind\u003c/b\u003e\u003c/td\u003e\u003ctd\u003e\u003cb\u003eCode\u003c/b\u003e\u003c/td\u003e\u003ctd\u003e\u003cb\u003eStatus\u003c/b\u003e\u003c/td\u003e\u003ctd\u003e\u003cb\u003eDoNotPerform\u003c/b\u003e\u003c/td\u003e\u003c/tr\u003e\u003ctr\u003e\u003ctd\u003e*\u003c/td\u003e\u003ctd\u003eServiceRequest\u003c/td\u003e\u003ctd\u003eEchography of kidney \u003cspan\u003e(Details : {SNOMED CT code \u0027306005\u0027 \u003d \u0027Echography of kidney\u0027, given as \u0027Echography of kidney\u0027})\u003c/span\u003e\u003c/td\u003e\u003ctd\u003ecompleted\u003c/td\u003e\u003ctd\u003efalse\u003c/td\u003e\u003c/tr\u003e\u003c/table\u003e\u003c/blockquote\u003e\u003c/div\u003e"
  },
  "contained": [
    {
      "resourceType": "CareTeam",
      "id": "careteam",
      "participant": [
        {
          "role": [
            {
              "coding": [
                {
                  "system": "http://snomed.info/sct",
                  "code": "425268008",
                  "display": "Review of care plan"
                }
              ]
            }
          ],
          "member": {
            "reference": "Practitioner/f201",
            "display": "Dokter Bronsig"
          }
        },
        {
          "role": [
            {
              "coding": [
                {
                  "system": "http://snomed.info/sct",
                  "code": "229774002",
                  "display": "Carer"
                }
              ]
            }
          ],
          "member": {
            "reference": "Practitioner/f204",
            "display": "Nurse Carla Espinosa"
          }
        }
      ]
    },
    {
      "resourceType": "Goal",
      "id": "goal",
      "lifecycleStatus": "completed",
      "achievementStatus": {
        "coding": [
          {
            "system": "http://terminology.hl7.org/CodeSystem/goal-achievement",
            "code": "achieved",
            "display": "Achieved"
          }
        ],
        "text": "Achieved"
      },
      "description": {
        "text": "Re-established renal function with at least healthy nutrients."
      },
      "subject": {
        "reference": "Patient/f201",
        "display": "Roel"
      }
    }
  ],
  "status": "draft",
  "intent": "proposal",
  "subject": {
    "reference": "Patient/f201",
    "display": "Roel"
  },
  "period": {
    "start": "2013-03-11",
    "end": "2013-03-13"
  },
  "careTeam": [
    {
      "reference": "#careteam"
    }
  ],
  "addresses": [
    {
      "reference": "Condition/f204",
      "display": "Roel\u0027s renal insufficiency"
    }
  ],
  "goal": [
    {
      "reference": "#goal"
    }
  ],
  "activity": [
    {
      "detail": {
        "kind": "NutritionOrder",
        "code": {
          "coding": [
            {
              "system": "http://snomed.info/sct",
              "code": "284093001",
              "display": "Potassium supplementation"
            }
          ]
        },
        "status": "completed",
        "doNotPerform": false,
        "scheduledString": "daily",
        "productReference": {
          "reference": "Substance/f203",
          "display": "Potassium"
        },
        "dailyAmount": {
          "value": 80,
          "unit": "mmol",
          "system": "http://snomed.info/sct",
          "code": "258718000"
        }
      }
    },
    {
      "detail": {
        "kind": "ServiceRequest",
        "code": {
          "coding": [
            {
              "system": "http://snomed.info/sct",
              "code": "306005",
              "display": "Echography of kidney"
            }
          ]
        },
        "status": "completed",
        "doNotPerform": false
      }
    }
  ],
  "meta": {
    "tag": [
      {
        "system": "http://terminology.hl7.org/CodeSystem/v3-ActReason",
        "code": "HTEST",
        "display": "test health data"
      }
    ]
  }
}