{
  "resourceType": "CarePlan",
  "id": "f002",
  "text": {
    "status": "generated",
    "div": "\u003cdiv xmlns\u003d\"http://www.w3.org/1999/xhtml\"\u003e\u003cp\u003e\u003cb\u003eGenerated Narrative with Details\u003c/b\u003e\u003c/p\u003e\u003cp\u003e\u003cb\u003eid\u003c/b\u003e: f002\u003c/p\u003e\u003cp\u003e\u003cb\u003econtained\u003c/b\u003e: , \u003c/p\u003e\u003cp\u003e\u003cb\u003eidentifier\u003c/b\u003e: CP2934 (OFFICIAL)\u003c/p\u003e\u003cp\u003e\u003cb\u003estatus\u003c/b\u003e: completed\u003c/p\u003e\u003cp\u003e\u003cb\u003eintent\u003c/b\u003e: plan\u003c/p\u003e\u003cp\u003e\u003cb\u003esubject\u003c/b\u003e: \u003ca\u003eP. van de Heuvel\u003c/a\u003e\u003c/p\u003e\u003cp\u003e\u003cb\u003eperiod\u003c/b\u003e: 06/07/2011 --\u0026gt; 07/07/2013\u003c/p\u003e\u003cp\u003e\u003cb\u003ecareTeam\u003c/b\u003e: id: careteam\u003c/p\u003e\u003cp\u003e\u003cb\u003eaddresses\u003c/b\u003e: \u003ca\u003e?????\u003c/a\u003e\u003c/p\u003e\u003cp\u003e\u003cb\u003egoal\u003c/b\u003e: id: goal; lifecycleStatus: completed; Achieved \u003cspan\u003e(Details : {http://terminology.hl7.org/CodeSystem/goal-achievement code \u0027achieved\u0027 \u003d \u0027Achieved\u0027, given as \u0027Achieved\u0027})\u003c/span\u003e; succesful surgery on lung of patient \u003cspan\u003e(Details )\u003c/span\u003e; Annotation: goal accomplished with minor complications\u003c/p\u003e\u003cblockquote\u003e\u003cp\u003e\u003cb\u003eactivity\u003c/b\u003e\u003c/p\u003e\u003ch3\u003eDetails\u003c/h3\u003e\u003ctable\u003e\u003ctr\u003e\u003ctd\u003e-\u003c/td\u003e\u003ctd\u003e\u003cb\u003eKind\u003c/b\u003e\u003c/td\u003e\u003ctd\u003e\u003cb\u003eCode\u003c/b\u003e\u003c/td\u003e\u003ctd\u003e\u003cb\u003eStatus\u003c/b\u003e\u003c/td\u003e\u003ctd\u003e\u003cb\u003eDoNotPerform\u003c/b\u003e\u003c/td\u003e\u003ctd\u003e\u003cb\u003eScheduled[x]\u003c/b\u003e\u003c/td\u003e\u003ctd\u003e\u003cb\u003ePerformer\u003c/b\u003e\u003c/td\u003e\u003c/tr\u003e\u003ctr\u003e\u003ctd\u003e*\u003c/td\u003e\u003ctd\u003eServiceRequest\u003c/td\u003e\u003ctd\u003ePartial lobectomy of lung \u003cspan\u003e(Details : {SNOMED CT code \u0027359615001\u0027 \u003d \u0027Partial lobectomy of lung\u0027, given as \u0027Partial lobectomy of lung\u0027})\u003c/span\u003e\u003c/td\u003e\u003ctd\u003ecompleted\u003c/td\u003e\u003ctd\u003etrue\u003c/td\u003e\u003ctd\u003e2011-07-07T09:30:10+01:00\u003c/td\u003e\u003ctd\u003e\u003ca\u003eM.I.M. Versteegh\u003c/a\u003e\u003c/td\u003e\u003c/tr\u003e\u003c/table\u003e\u003c/blockquote\u003e\u003c/div\u003e"
  },
  "contained": [
    {
      "resourceType": "CareTeam",
      "id": "careteam",
      "participant": [
        {
          "member": {
            "reference": "Practitioner/f003",
            "display": "M.I.M. Versteegh"
          }
        }
      ]
    },
    {
      "resourceType": "Goal",
      "id": "goal",
      "lifecycleStatus": "completed",
      "achievementStatus": {
        "coding": [
          {
            "system": "http://terminology.hl7.org/CodeSystem/goal-achievement",
            "code": "achieved",
            "display": "Achieved"
          }
        ],
        "text": "Achieved"
      },
      "description": {
        "text": "succesful surgery on lung of patient"
      },
      "subject": {
        "reference": "Patient/f001",
        "display": "P. van de Heuvel"
      },
      "note": [
        {
          "text": "goal accomplished with minor complications"
        }
      ]
    }
  ],
  "identifier": [
    {
      "use": "official",
      "system": "http://www.bmc.nl/zorgportal/identifiers/careplans",
      "value": "CP2934"
    }
  ],
  "status": "completed",
  "intent": "plan",
  "subject": {
    "reference": "Patient/f001",
    "display": "P. van de Heuvel"
  },
  "period": {
    "start": "2011-07-06",
    "end": "2013-07-07"
  },
  "careTeam": [
    {
      "reference": "#careteam"
    }
  ],
  "addresses": [
    {
      "reference": "Condition/f201",
      "display": "?????"
    }
  ],
  "goal": [
    {
      "reference": "#goal"
    }
  ],
  "activity": [
    {
      "detail": {
        "kind": "ServiceRequest",
        "code": {
          "coding": [
            {
              "system": "http://snomed.info/sct",
              "code": "359615001",
              "display": "Partial lobectomy of lung"
            }
          ]
        },
        "status": "completed",
        "doNotPerform": true,
        "scheduledString": "2011-07-07T09:30:10+01:00",
        "performer": [
          {
            "reference": "Practitioner/f003",
            "display": "M.I.M. Versteegh"
          }
        ]
      }
    }
  ],
  "meta": {
    "tag": [
      {
        "system": "http://terminology.hl7.org/CodeSystem/v3-ActReason",
        "code": "HTEST",
        "display": "test health data"
      }
    ]
  }
}