{
  "resourceType": "Bundle",
  "id": "father",
  "meta": {
    "lastUpdated": "2013-05-28T22:12:21Z",
    "tag": [
      {
        "system": "http://terminology.hl7.org/CodeSystem/v3-ActReason",
        "code": "HTEST",
        "display": "test health data"
      }
    ]
  },
  "identifier": {
    "system": "urn:ietf:rfc:3986",
    "value": "urn:uuid:0c3151bd-1cbf-4d64-b04d-cd9187a4c6e0"
  },
  "type": "document",
  "timestamp": "2013-05-28T22:12:21Z",
  "entry": [
    {
      "fullUrl": "http://fhir.healthintersections.com.au/open/Composition/180f219f-97a8-486d-99d9-ed631fe4fc57",
      "resource": {
        "resourceType": "Composition",
        "id": "180f219f-97a8-486d-99d9-ed631fe4fc57",
        "meta": {
          "lastUpdated": "2013-05-28T22:12:21Z"
        },
        "text": {
          "status": "generated",
          "div": "\u003cdiv xmlns\u003d\"http://www.w3.org/1999/xhtml\"\u003e\u003cp\u003e\u003cb\u003eGenerated Narrative with Details\u003c/b\u003e\u003c/p\u003e\u003cp\u003e\u003cb\u003eid\u003c/b\u003e: 180f219f-97a8-486d-99d9-ed631fe4fc57\u003c/p\u003e\u003cp\u003e\u003cb\u003emeta\u003c/b\u003e: \u003c/p\u003e\u003cp\u003e\u003cb\u003estatus\u003c/b\u003e: final\u003c/p\u003e\u003cp\u003e\u003cb\u003etype\u003c/b\u003e: Discharge Summary from Responsible Clinician \u003cspan\u003e(Details : {LOINC code \u002728655-9\u0027 \u003d \u0027Physician attending Discharge summary)\u003c/span\u003e\u003c/p\u003e\u003cp\u003e\u003cb\u003eencounter\u003c/b\u003e: \u003ca\u003ehttp://fhir.healthintersections.com.au/open/Encounter/doc-example\u003c/a\u003e\u003c/p\u003e\u003cp\u003e\u003cb\u003edate\u003c/b\u003e: 01/02/2013 12:30:02 PM\u003c/p\u003e\u003cp\u003e\u003cb\u003eauthor\u003c/b\u003e: \u003ca\u003eDoctor Dave\u003c/a\u003e\u003c/p\u003e\u003cp\u003e\u003cb\u003etitle\u003c/b\u003e: Discharge Summary\u003c/p\u003e\u003cp\u003e\u003cb\u003econfidentiality\u003c/b\u003e: N\u003c/p\u003e\u003c/div\u003e"
        },
        "status": "final",
        "type": {
          "coding": [
            {
              "system": "http://loinc.org",
              "code": "28655-9"
            }
          ],
          "text": "Discharge Summary from Responsible Clinician"
        },
        "subject": {
          "reference": "http://fhir.healthintersections.com.au/open/Patient/d1",
          "display": "Eve Everywoman"
        },
        "encounter": {
          "reference": "http://fhir.healthintersections.com.au/open/Encounter/doc-example"
        },
        "date": "2013-02-01T12:30:02Z",
        "author": [
          {
            "reference": "Practitioner/example",
            "display": "Doctor Dave"
          }
        ],
        "title": "Discharge Summary",
        "confidentiality": "N",
        "section": [
          {
            "title": "Reason for admission",
            "code": {
              "coding": [
                {
                  "system": "http://loinc.org",
                  "code": "29299-5",
                  "display": "Reason for visit Narrative"
                }
              ]
            },
            "text": {
              "status": "additional",
              "div": "\u003cdiv xmlns\u003d\"http://www.w3.org/1999/xhtml\"\u003e\n\n              \u003ctable\u003e\n\n                \u003cthead\u003e\n\n                  \u003ctr\u003e\n\n                    \u003ctd\u003eDetails\u003c/td\u003e\n\n                    \u003ctd/\u003e\n\n                  \u003c/tr\u003e\n\n                \u003c/thead\u003e\n\n                \u003ctbody\u003e\n\n                  \u003ctr\u003e\n\n                    \u003ctd\u003eAcute Asthmatic attack. Was wheezing for days prior to admission.\u003c/td\u003e\n\n                    \u003ctd/\u003e\n\n                  \u003c/tr\u003e\n\n                \u003c/tbody\u003e\n\n              \u003c/table\u003e\n\n            \u003c/div\u003e"
            },
            "entry": [
              {
                "reference": "urn:uuid:541a72a8-df75-4484-ac89-ac4923f03b81"
              }
            ]
          },
          {
            "title": "Medications on Discharge",
            "code": {
              "coding": [
                {
                  "system": "http://loinc.org",
                  "code": "10183-2",
                  "display": "Hospital discharge medications Narrative"
                }
              ]
            },
            "text": {
              "status": "additional",
              "div": "\u003cdiv xmlns\u003d\"http://www.w3.org/1999/xhtml\"\u003e\n\n              \u003ctable\u003e\n\n                \u003cthead\u003e\n\n                  \u003ctr\u003e\n\n                    \u003ctd\u003eMedication\u003c/td\u003e\n\n                    \u003ctd\u003eLast Change\u003c/td\u003e\n\n                    \u003ctd\u003eLast ChangeReason\u003c/td\u003e\n\n                  \u003c/tr\u003e\n\n                \u003c/thead\u003e\n\n                \u003ctbody\u003e\n\n                  \u003ctr\u003e\n\n                    \u003ctd\u003eTheophylline 200mg BD after meals\u003c/td\u003e\n\n                    \u003ctd\u003econtinued\u003c/td\u003e\n\n                  \u003c/tr\u003e\n\n                  \u003ctr\u003e\n\n                    \u003ctd\u003eVentolin Inhaler\u003c/td\u003e\n\n                    \u003ctd\u003estopped\u003c/td\u003e\n\n                    \u003ctd\u003eGetting side effect of tremor\u003c/td\u003e\n\n                  \u003c/tr\u003e\n\n                \u003c/tbody\u003e\n\n              \u003c/table\u003e\n\n            \u003c/div\u003e"
            },
            "mode": "working",
            "entry": [
              {
                "reference": "urn:uuid:124a6916-5d84-4b8c-b250-10cefb8e6e86"
              },
              {
                "reference": "urn:uuid:673f8db5-0ffd-4395-9657-6da00420bbc1"
              }
            ]
          },
          {
            "title": "Known allergies",
            "code": {
              "coding": [
                {
                  "system": "http://loinc.org",
                  "code": "48765-2",
                  "display": "Allergies and adverse reactions Document"
                }
              ]
            },
            "text": {
              "status": "additional",
              "div": "\u003cdiv xmlns\u003d\"http://www.w3.org/1999/xhtml\"\u003e\n\n              \u003ctable\u003e\n\n                \u003cthead\u003e\n\n                  \u003ctr\u003e\n\n                    \u003ctd\u003eAllergen\u003c/td\u003e\n\n                    \u003ctd\u003eReaction\u003c/td\u003e\n\n                  \u003c/tr\u003e\n\n                \u003c/thead\u003e\n\n                \u003ctbody\u003e\n\n                  \u003ctr\u003e\n\n                    \u003ctd\u003eDoxycycline\u003c/td\u003e\n\n                    \u003ctd\u003eHives\u003c/td\u003e\n\n                  \u003c/tr\u003e\n\n                \u003c/tbody\u003e\n\n              \u003c/table\u003e\n\n            \u003c/div\u003e"
            },
            "entry": [
              {
                "reference": "urn:uuid:47600e0f-b6b5-4308-84b5-5dec157f7637"
              }
            ]
          }
        ]
      }
    },
    {
      "fullUrl": "http://fhir.healthintersections.com.au/open/Practitioner/example",
      "resource": {
        "resourceType": "Practitioner",
        "id": "example",
        "meta": {
          "lastUpdated": "2013-05-05T16:13:03Z"
        },
        "text": {
          "status": "generated",
          "div": "\u003cdiv xmlns\u003d\"http://www.w3.org/1999/xhtml\"\u003e\n\n            \u003cp\u003eDr Adam Careful\u003c/p\u003e\n\n          \u003c/div\u003e"
        },
        "identifier": [
          {
            "system": "http://www.acme.org/practitioners",
            "value": "23"
          }
        ],
        "name": [
          {
            "family": "Careful",
            "given": [
              "Adam"
            ],
            "prefix": [
              "Dr"
            ]
          }
        ]
      }
    },
    {
      "fullUrl": "http://fhir.healthintersections.com.au/open/Patient/d1",
      "resource": {
        "resourceType": "Patient",
        "id": "d1",
        "text": {
          "status": "generated",
          "div": "\u003cdiv xmlns\u003d\"http://www.w3.org/1999/xhtml\"\u003e\n\n            \u003ch1\u003eEve Everywoman\u003c/h1\u003e\n\n          \u003c/div\u003e"
        },
        "active": true,
        "name": [
          {
            "text": "Eve Everywoman",
            "family": "Everywoman1",
            "given": [
              "Eve"
            ]
          }
        ],
        "telecom": [
          {
            "system": "phone",
            "value": "555-555-2003",
            "use": "work"
          }
        ],
        "gender": "female",
        "birthDate": "1955-01-06",
        "address": [
          {
            "use": "home",
            "line": [
              "2222 Home Street"
            ]
          }
        ]
      }
    },
    {
      "fullUrl": "http://fhir.healthintersections.com.au/open/Encounter/doc-example",
      "resource": {
        "resourceType": "Encounter",
        "id": "doc-example",
        "meta": {
          "lastUpdated": "2013-05-05T16:13:03Z"
        },
        "text": {
          "status": "generated",
          "div": "\u003cdiv xmlns\u003d\"http://www.w3.org/1999/xhtml\"\u003e Admitted to Orthopedics Service,\n                        Middlemore Hospital between Jan 20 and Feb ist 2013 \u003c/div\u003e"
        },
        "identifier": [
          {
            "value": "S100"
          }
        ],
        "status": "finished",
        "class": {
          "system": "http://terminology.hl7.org/CodeSystem/v3-ActCode",
          "code": "IMP",
          "display": "inpatient encounter"
        },
        "type": [
          {
            "text": "Orthopedic Admission"
          }
        ],
        "subject": {
          "reference": "Patient/d1"
        },
        "period": {
          "start": "2013-01-20T12:30:02Z",
          "end": "2013-02-01T12:30:02Z"
        },
        "hospitalization": {
          "dischargeDisposition": {
            "text": "Discharged to care of GP"
          }
        }
      }
    },
    {
      "fullUrl": "urn:uuid:541a72a8-df75-4484-ac89-ac4923f03b81",
      "resource": {
        "resourceType": "Observation",
        "meta": {
          "lastUpdated": "2013-05-05T16:13:03Z"
        },
        "text": {
          "status": "additional",
          "div": "\u003cdiv xmlns\u003d\"http://www.w3.org/1999/xhtml\"\u003e Acute Asthmatic attack. Was wheezing\n                        for days prior to admission. \u003c/div\u003e"
        },
        "status": "final",
        "code": {
          "coding": [
            {
              "system": "http://loinc.org",
              "code": "46241-6"
            }
          ],
          "text": "Reason for admission"
        },
        "subject": {
          "reference": "http://fhir.healthintersections.com.au/open/Patient/d1",
          "display": "Eve Everywoman"
        },
        "encounter": {
          "reference": "http://fhir.healthintersections.com.au/open/Encounter/doc-example"
        },
        "valueString": "Acute Asthmatic attack. Was wheezing for days prior to admission."
      }
    },
    {
      "fullUrl": "urn:uuid:124a6916-5d84-4b8c-b250-10cefb8e6e86",
      "resource": {
        "resourceType": "MedicationRequest",
        "meta": {
          "lastUpdated": "2013-05-05T16:13:03Z"
        },
        "text": {
          "status": "generated",
          "div": "\u003cdiv xmlns\u003d\"http://www.w3.org/1999/xhtml\"\u003e\n\n            \u003cp\u003eTheophylline 200mg twice a day\u003c/p\u003e\n\n          \u003c/div\u003e"
        },
        "status": "unknown",
        "intent": "order",
        "medicationCodeableConcept": {
          "coding": [
            {
              "system": "http://snomed.info/sct",
              "code": "66493003"
            }
          ],
          "text": "Theophylline 200mg"
        },
        "subject": {
          "reference": "http://fhir.healthintersections.com.au/open/Patient/d1",
          "display": "Peter Patient"
        },
        "requester": {
          "reference": "Practitioner/example",
          "display": "Peter Practitioner"
        },
        "reasonCode": [
          {
            "text": "Management of Asthma"
          }
        ],
        "dosageInstruction": [
          {
            "additionalInstruction": [
              {
                "text": "Take with Food"
              }
            ],
            "timing": {
              "repeat": {
                "frequency": 2,
                "period": 1,
                "periodUnit": "d"
              }
            },
            "route": {
              "coding": [
                {
                  "system": "http://snomed.info/sct",
                  "code": "394899003",
                  "display": "oral administration of treatment"
                }
              ]
            },
            "doseAndRate": [
              {
                "type": {
                  "coding": [
                    {
                      "system": "http://terminology.hl7.org/CodeSystem/dose-rate-type",
                      "code": "ordered",
                      "display": "Ordered"
                    }
                  ]
                },
                "doseQuantity": {
                  "value": 1,
                  "unit": "tablet",
                  "system": "http://unitsofmeasure.org",
                  "code": "tbl"
                }
              }
            ]
          }
        ]
      }
    },
    {
      "fullUrl": "urn:uuid:673f8db5-0ffd-4395-9657-6da00420bbc1",
      "resource": {
        "resourceType": "MedicationStatement",
        "text": {
          "status": "generated",
          "div": "\u003cdiv xmlns\u003d\"http://www.w3.org/1999/xhtml\"\u003e\n\n            \u003cp\u003eVentolin inhaler discontinued\u003c/p\u003e\n\n          \u003c/div\u003e"
        },
        "status": "active",
        "statusReason": [
          {
            "text": "Management of Asthma"
          }
        ],
        "medicationCodeableConcept": {
          "text": "Ventolin Inhaler"
        },
        "subject": {
          "reference": "http://fhir.healthintersections.com.au/open/Patient/d1",
          "display": "Peter Patient"
        },
        "dateAsserted": "2013-05-05T16:13:03Z"
      }
    },
    {
      "fullUrl": "urn:uuid:47600e0f-b6b5-4308-84b5-5dec157f7637",
      "resource": {
        "resourceType": "AllergyIntolerance",
        "meta": {
          "lastUpdated": "2013-05-05T16:13:03Z"
        },
        "text": {
          "status": "generated",
          "div": "\u003cdiv xmlns\u003d\"http://www.w3.org/1999/xhtml\"\u003eSensitivity to Doxycycline :\n                        Hives\u003c/div\u003e"
        },
        "clinicalStatus": {
          "coding": [
            {
              "system": "http://terminology.hl7.org/CodeSystem/allergyintolerance-clinical",
              "code": "active",
              "display": "Active"
            }
          ]
        },
        "verificationStatus": {
          "coding": [
            {
              "system": "http://terminology.hl7.org/CodeSystem/allergyintolerance-verification",
              "code": "confirmed",
              "display": "Confirmed"
            }
          ]
        },
        "type": "allergy",
        "criticality": "high",
        "code": {
          "text": "Doxycycline"
        },
        "patient": {
          "reference": "http://fhir.healthintersections.com.au/open/Patient/d1",
          "display": "Eve Everywoman"
        },
        "recordedDate": "2012-09-17",
        "reaction": [
          {
            "manifestation": [
              {
                "coding": [
                  {
                    "system": "http://example.org/system",
                    "code": "xxx",
                    "display": "Hives"
                  }
                ],
                "text": "Hives"
              }
            ]
          }
        ]
      }
    }
  ],
  "signature": {
    "type": [
      {
        "system": "urn:iso-astm:E1762-95:2013",
        "code": "1.2.840.10065.1.12.1.1",
        "display": "Author\u0027s Signature"
      }
    ],
    "when": "2015-08-31T07:42:33+10:00",
    "who": {
      "reference": "Device/software"
    },
    "onBehalfOf": {
      "reference": "Organization/example"
    },
    "sigFormat": "image/jpg",
    "data": "\u003d\u003d"
  }
}