{
  "resourceType": "List",
  "id": "genetic",
  "text": {
    "status": "generated",
    "div": "\u003cdiv xmlns\u003d\"http://www.w3.org/1999/xhtml\"\u003e\u003cp\u003e\u003cb\u003eGenerated Narrative with Details\u003c/b\u003e\u003c/p\u003e\u003cp\u003e\u003cb\u003eid\u003c/b\u003e: genetic\u003c/p\u003e\u003cp\u003e\u003cb\u003econtained\u003c/b\u003e: , , , , , , , \u003c/p\u003e\u003cp\u003e\u003cb\u003estatus\u003c/b\u003e: current\u003c/p\u003e\u003cp\u003e\u003cb\u003emode\u003c/b\u003e: snapshot\u003c/p\u003e\u003cp\u003e\u003cb\u003ecode\u003c/b\u003e: History of family member diseases \u003cspan\u003e(Details : {LOINC code \u00278670-2\u0027 \u003d \u0027History of family member diseases\u0027, given as \u0027History of family member diseases\u0027})\u003c/span\u003e\u003c/p\u003e\u003cp\u003e\u003cb\u003esubject\u003c/b\u003e: \u003ca\u003ePeter Patient\u003c/a\u003e\u003c/p\u003e\u003cblockquote\u003e\u003cp\u003e\u003cb\u003eentry\u003c/b\u003e\u003c/p\u003e\u003cp\u003e\u003cb\u003eitem\u003c/b\u003e: id: 1; status: completed; name: Dave; father \u003cspan\u003e(Details : {http://terminology.hl7.org/CodeSystem/v3-RoleCode code \u0027FTH\u0027 \u003d \u0027father\u0027, given as \u0027father\u0027})\u003c/span\u003e\u003c/p\u003e\u003c/blockquote\u003e\u003cblockquote\u003e\u003cp\u003e\u003cb\u003eentry\u003c/b\u003e\u003c/p\u003e\u003cp\u003e\u003cb\u003eitem\u003c/b\u003e: id: 2; status: completed; maternal grandfather \u003cspan\u003e(Details : {http://terminology.hl7.org/CodeSystem/v3-RoleCode code \u0027MGRFTH\u0027 \u003d \u0027maternal grandfather\u0027, given as \u0027maternal grandfather\u0027})\u003c/span\u003e\u003c/p\u003e\u003c/blockquote\u003e\u003cblockquote\u003e\u003cp\u003e\u003cb\u003eentry\u003c/b\u003e\u003c/p\u003e\u003cp\u003e\u003cb\u003eitem\u003c/b\u003e: id: 3; status: completed; mother \u003cspan\u003e(Details : {http://terminology.hl7.org/CodeSystem/v3-RoleCode code \u0027MTH\u0027 \u003d \u0027mother\u0027, given as \u0027mother\u0027})\u003c/span\u003e\u003c/p\u003e\u003c/blockquote\u003e\u003cblockquote\u003e\u003cp\u003e\u003cb\u003eentry\u003c/b\u003e\u003c/p\u003e\u003cp\u003e\u003cb\u003eitem\u003c/b\u003e: id: 4; status: completed; paternal grandmother \u003cspan\u003e(Details : {http://terminology.hl7.org/CodeSystem/v3-RoleCode code \u0027PGRMTH\u0027 \u003d \u0027paternal grandmother\u0027, given as \u0027paternal grandmother\u0027})\u003c/span\u003e\u003c/p\u003e\u003c/blockquote\u003e\u003cblockquote\u003e\u003cp\u003e\u003cb\u003eentry\u003c/b\u003e\u003c/p\u003e\u003cp\u003e\u003cb\u003eitem\u003c/b\u003e: id: 5; status: completed; name: Eve; paternal aunt \u003cspan\u003e(Details : {http://terminology.hl7.org/CodeSystem/v3-RoleCode code \u0027PAUNT\u0027 \u003d \u0027paternal aunt\u0027, given as \u0027paternal aunt\u0027})\u003c/span\u003e\u003c/p\u003e\u003c/blockquote\u003e\u003cblockquote\u003e\u003cp\u003e\u003cb\u003eentry\u003c/b\u003e\u003c/p\u003e\u003cp\u003e\u003cb\u003eitem\u003c/b\u003e: id: 6; status: completed; maternal uncle \u003cspan\u003e(Details : {http://terminology.hl7.org/CodeSystem/v3-RoleCode code \u0027MUNCLE\u0027 \u003d \u0027maternal uncle\u0027, given as \u0027maternal uncle\u0027})\u003c/span\u003e\u003c/p\u003e\u003c/blockquote\u003e\u003cblockquote\u003e\u003cp\u003e\u003cb\u003eentry\u003c/b\u003e\u003c/p\u003e\u003cp\u003e\u003cb\u003eitem\u003c/b\u003e: id: 7; status: completed; natural sister \u003cspan\u003e(Details : {http://terminology.hl7.org/CodeSystem/v3-RoleCode code \u0027NSIS\u0027 \u003d \u0027natural sister\u0027, given as \u0027natural sister\u0027})\u003c/span\u003e\u003c/p\u003e\u003c/blockquote\u003e\u003cblockquote\u003e\u003cp\u003e\u003cb\u003eentry\u003c/b\u003e\u003c/p\u003e\u003cp\u003e\u003cb\u003eitem\u003c/b\u003e: id: 8; status: completed; name: Alice; maternal cousin \u003cspan\u003e(Details : {http://terminology.hl7.org/CodeSystem/v3-RoleCode code \u0027MCOUSN\u0027 \u003d \u0027maternal cousin\u0027, given as \u0027maternal cousin\u0027})\u003c/span\u003e\u003c/p\u003e\u003c/blockquote\u003e\u003cblockquote\u003e\u003cp\u003e\u003cb\u003eentry\u003c/b\u003e\u003c/p\u003e\u003cp\u003e\u003cb\u003eitem\u003c/b\u003e: \u003ca\u003eFamily history of cancer of colon\u003c/a\u003e\u003c/p\u003e\u003c/blockquote\u003e\u003c/div\u003e"
  },
  "contained": [
    {
      "resourceType": "FamilyMemberHistory",
      "id": "1",
      "extension": [
        {
          "url": "http://hl7.org/fhir/StructureDefinition/family-member-history-genetics-parent",
          "extension": [
            {
              "url": "type",
              "valueCodeableConcept": {
                "coding": [
                  {
                    "system": "http://terminology.hl7.org/CodeSystem/v3-RoleCode",
                    "code": "FTH",
                    "display": "father"
                  }
                ]
              }
            },
            {
              "url": "reference",
              "valueReference": {
                "reference": "#2",
                "display": "maternal grandfather"
              }
            }
          ]
        }
      ],
      "status": "completed",
      "patient": {
        "reference": "Patient/example",
        "display": "Peter Patient"
      },
      "name": "Dave",
      "relationship": {
        "coding": [
          {
            "system": "http://terminology.hl7.org/CodeSystem/v3-RoleCode",
            "code": "FTH",
            "display": "father"
          }
        ]
      }
    },
    {
      "resourceType": "FamilyMemberHistory",
      "id": "2",
      "status": "completed",
      "patient": {
        "reference": "Patient/example",
        "display": "Peter Patient"
      },
      "relationship": {
        "coding": [
          {
            "system": "http://terminology.hl7.org/CodeSystem/v3-RoleCode",
            "code": "MGRFTH",
            "display": "maternal grandfather"
          }
        ]
      }
    },
    {
      "resourceType": "FamilyMemberHistory",
      "id": "3",
      "extension": [
        {
          "url": "http://hl7.org/fhir/StructureDefinition/family-member-history-genetics-parent",
          "extension": [
            {
              "url": "type",
              "valueCodeableConcept": {
                "coding": [
                  {
                    "system": "http://terminology.hl7.org/CodeSystem/v3-RoleCode",
                    "code": "MTH",
                    "display": "mother"
                  }
                ]
              }
            },
            {
              "url": "reference",
              "valueReference": {
                "reference": "#2",
                "display": "maternal grandfather"
              }
            }
          ]
        }
      ],
      "status": "completed",
      "patient": {
        "reference": "Patient/example",
        "display": "Peter Patient"
      },
      "relationship": {
        "coding": [
          {
            "system": "http://terminology.hl7.org/CodeSystem/v3-RoleCode",
            "code": "MTH",
            "display": "mother"
          }
        ]
      }
    },
    {
      "resourceType": "FamilyMemberHistory",
      "id": "4",
      "status": "completed",
      "patient": {
        "reference": "Patient/example",
        "display": "Peter Patient"
      },
      "relationship": {
        "coding": [
          {
            "system": "http://terminology.hl7.org/CodeSystem/v3-RoleCode",
            "code": "PGRMTH",
            "display": "paternal grandmother"
          }
        ]
      }
    },
    {
      "resourceType": "FamilyMemberHistory",
      "id": "5",
      "status": "completed",
      "patient": {
        "reference": "Patient/example",
        "display": "Peter Patient"
      },
      "name": "Eve",
      "relationship": {
        "coding": [
          {
            "system": "http://terminology.hl7.org/CodeSystem/v3-RoleCode",
            "code": "PAUNT",
            "display": "paternal aunt"
          }
        ]
      }
    },
    {
      "resourceType": "FamilyMemberHistory",
      "id": "6",
      "status": "completed",
      "patient": {
        "reference": "Patient/example",
        "display": "Peter Patient"
      },
      "relationship": {
        "coding": [
          {
            "system": "http://terminology.hl7.org/CodeSystem/v3-RoleCode",
            "code": "MUNCLE",
            "display": "maternal uncle"
          }
        ]
      }
    },
    {
      "resourceType": "FamilyMemberHistory",
      "id": "7",
      "status": "completed",
      "patient": {
        "reference": "Patient/example",
        "display": "Peter Patient"
      },
      "relationship": {
        "coding": [
          {
            "system": "http://terminology.hl7.org/CodeSystem/v3-RoleCode",
            "code": "NSIS",
            "display": "natural sister"
          }
        ]
      }
    },
    {
      "resourceType": "FamilyMemberHistory",
      "id": "8",
      "extension": [
        {
          "url": "http://hl7.org/fhir/StructureDefinition/family-member-history-genetics-parent",
          "extension": [
            {
              "url": "type",
              "valueCodeableConcept": {
                "coding": [
                  {
                    "system": "http://terminology.hl7.org/CodeSystem/v3-RoleCode",
                    "code": "MTH",
                    "display": "mother"
                  }
                ]
              }
            },
            {
              "url": "reference",
              "valueReference": {
                "reference": "#2",
                "display": "maternal grandfather"
              }
            }
          ]
        }
      ],
      "status": "completed",
      "patient": {
        "reference": "Patient/example",
        "display": "Peter Patient"
      },
      "name": "Alice",
      "relationship": {
        "coding": [
          {
            "system": "http://terminology.hl7.org/CodeSystem/v3-RoleCode",
            "code": "MCOUSN",
            "display": "maternal cousin"
          }
        ]
      }
    }
  ],
  "status": "current",
  "mode": "snapshot",
  "code": {
    "coding": [
      {
        "system": "http://loinc.org",
        "code": "8670-2",
        "display": "History of family member diseases"
      }
    ]
  },
  "subject": {
    "reference": "Patient/example",
    "display": "Peter Patient"
  },
  "entry": [
    {
      "item": {
        "reference": "#1"
      }
    },
    {
      "item": {
        "reference": "#2"
      }
    },
    {
      "item": {
        "reference": "#3"
      }
    },
    {
      "item": {
        "reference": "#4"
      }
    },
    {
      "item": {
        "reference": "#5"
      }
    },
    {
      "item": {
        "reference": "#6"
      }
    },
    {
      "item": {
        "reference": "#7"
      }
    },
    {
      "item": {
        "reference": "#8"
      }
    },
    {
      "item": {
        "reference": "Condition/family-history",
        "display": "Family history of cancer of colon"
      }
    }
  ],
  "meta": {
    "tag": [
      {
        "system": "http://terminology.hl7.org/CodeSystem/v3-ActReason",
        "code": "HTEST",
        "display": "test health data"
      }
    ]
  }
}