{
  "resourceType": "List",
  "id": "prognosis",
  "text": {
    "status": "generated",
    "div": "\u003cdiv xmlns\u003d\"http://www.w3.org/1999/xhtml\"\u003e\n      \u003cimg src\u003d\"#image\" alt\u003d\"Family history diagram for Annie Proband\"/\u003e\n    \u003c/div\u003e"
  },
  "contained": [
    {
      "resourceType": "Binary",
      "id": "image",
      "contentType": "image/png",
      "data": "\u003d\u003d"
    },
    {
      "resourceType": "FamilyMemberHistory",
      "id": "1",
      "extension": [
        {
          "url": "http://hl7.org/fhir/StructureDefinition/family-member-history-genetics-parent",
          "extension": [
            {
              "url": "type",
              "valueCodeableConcept": {
                "coding": [
                  {
                    "system": "http://terminology.hl7.org/CodeSystem/v3-RoleCode",
                    "code": "NMTH",
                    "display": "natural mother"
                  }
                ]
              }
            },
            {
              "url": "reference",
              "valueReference": {
                "reference": "#2"
              }
            }
          ]
        },
        {
          "url": "http://hl7.org/fhir/StructureDefinition/family-member-history-genetics-parent",
          "extension": [
            {
              "url": "type",
              "valueCodeableConcept": {
                "coding": [
                  {
                    "system": "http://terminology.hl7.org/CodeSystem/v3-RoleCode",
                    "code": "NFTH",
                    "display": "natural father"
                  }
                ]
              }
            },
            {
              "url": "reference",
              "valueReference": {
                "reference": "#3"
              }
            }
          ]
        }
      ],
      "status": "completed",
      "patient": {
        "reference": "Patient/proband",
        "display": "Annie Proband, female, born 1966"
      },
      "name": "Annie",
      "relationship": {
        "coding": [
          {
            "system": "http://terminology.hl7.org/CodeSystem/v3-RoleCode",
            "code": "ONESELF",
            "display": "self"
          }
        ]
      },
      "ageAge": {
        "value": 42,
        "unit": "years",
        "system": "http://unitsofmeasure.org",
        "code": "a"
      },
      "deceasedBoolean": false
    },
    {
      "resourceType": "FamilyMemberHistory",
      "id": "2",
      "extension": [
        {
          "url": "http://hl7.org/fhir/StructureDefinition/family-member-history-genetics-parent",
          "extension": [
            {
              "url": "type",
              "valueCodeableConcept": {
                "coding": [
                  {
                    "system": "http://terminology.hl7.org/CodeSystem/v3-RoleCode",
                    "code": "NMTH",
                    "display": "natural mother"
                  }
                ]
              }
            },
            {
              "url": "reference",
              "valueReference": {
                "reference": "#4"
              }
            }
          ]
        },
        {
          "url": "http://hl7.org/fhir/StructureDefinition/family-member-history-genetics-parent",
          "extension": [
            {
              "url": "type",
              "valueCodeableConcept": {
                "coding": [
                  {
                    "system": "http://terminology.hl7.org/CodeSystem/v3-RoleCode",
                    "code": "NFTH",
                    "display": "natural father"
                  }
                ]
              }
            },
            {
              "url": "reference",
              "valueReference": {
                "reference": "#5"
              }
            }
          ]
        }
      ],
      "status": "completed",
      "patient": {
        "reference": "Patient/proband",
        "display": "Annie Proband, female, born 1966"
      },
      "name": "Harriet",
      "relationship": {
        "coding": [
          {
            "system": "http://terminology.hl7.org/CodeSystem/v3-RoleCode",
            "code": "NMTH",
            "display": "natural mother"
          }
        ]
      },
      "deceasedAge": {
        "value": 50,
        "unit": "years",
        "system": "http://unitsofmeasure.org",
        "code": "a"
      },
      "condition": [
        {
          "code": {
            "coding": [
              {
                "system": "urn:oid:2.16.840.1.113883.3.26.1.1",
                "code": "C4908",
                "display": "Ovarian Carcinoma"
              }
            ]
          },
          "onsetAge": {
            "value": 45,
            "unit": "years",
            "system": "http://unitsofmeasure.org",
            "code": "a"
          }
        }
      ]
    },
    {
      "resourceType": "FamilyMemberHistory",
      "id": "3",
      "extension": [
        {
          "url": "http://hl7.org/fhir/StructureDefinition/family-member-history-genetics-parent",
          "extension": [
            {
              "url": "type",
              "valueCodeableConcept": {
                "coding": [
                  {
                    "system": "http://terminology.hl7.org/CodeSystem/v3-RoleCode",
                    "code": "NMTH",
                    "display": "natural mother"
                  }
                ]
              }
            },
            {
              "url": "reference",
              "valueReference": {
                "reference": "#6"
              }
            }
          ]
        },
        {
          "url": "http://hl7.org/fhir/StructureDefinition/family-member-history-genetics-parent",
          "extension": [
            {
              "url": "type",
              "valueCodeableConcept": {
                "coding": [
                  {
                    "system": "http://terminology.hl7.org/CodeSystem/v3-RoleCode",
                    "code": "NFTH",
                    "display": "natural father"
                  }
                ]
              }
            },
            {
              "url": "reference",
              "valueReference": {
                "reference": "#7"
              }
            }
          ]
        }
      ],
      "status": "completed",
      "patient": {
        "reference": "Patient/proband",
        "display": "Annie Proband, female, born 1966"
      },
      "name": "Donald",
      "relationship": {
        "coding": [
          {
            "system": "http://terminology.hl7.org/CodeSystem/v3-RoleCode",
            "code": "NFTH",
            "display": "natural father"
          }
        ]
      },
      "ageAge": {
        "value": 72,
        "unit": "years",
        "system": "http://unitsofmeasure.org",
        "code": "a"
      },
      "deceasedBoolean": false
    },
    {
      "resourceType": "FamilyMemberHistory",
      "id": "4",
      "status": "completed",
      "patient": {
        "reference": "Patient/proband",
        "display": "Annie Proband, female, born 1966"
      },
      "name": "Gladys",
      "relationship": {
        "coding": [
          {
            "system": "http://terminology.hl7.org/CodeSystem/v3-RoleCode",
            "code": "MGRMTH",
            "display": "maternal grandmother"
          }
        ]
      },
      "deceasedAge": {
        "value": 77,
        "unit": "years",
        "system": "http://unitsofmeasure.org",
        "code": "a"
      },
      "condition": [
        {
          "code": {
            "coding": [
              {
                "system": "urn:oid:2.16.840.1.113883.3.26.1.1",
                "code": "C4872",
                "display": "Breast Carcinoma"
              }
            ]
          },
          "onsetAge": {
            "value": 55,
            "unit": "years",
            "system": "http://unitsofmeasure.org",
            "code": "a"
          }
        }
      ]
    },
    {
      "resourceType": "FamilyMemberHistory",
      "id": "5",
      "status": "completed",
      "patient": {
        "reference": "Patient/proband",
        "display": "Annie Proband, female, born 1966"
      },
      "name": "Ian",
      "relationship": {
        "coding": [
          {
            "system": "http://terminology.hl7.org/CodeSystem/v3-RoleCode",
            "code": "MGRFTH",
            "display": "maternal grandfather"
          }
        ]
      },
      "deceasedAge": {
        "value": 76,
        "unit": "years",
        "system": "http://unitsofmeasure.org",
        "code": "a"
      }
    },
    {
      "resourceType": "FamilyMemberHistory",
      "id": "6",
      "status": "completed",
      "patient": {
        "reference": "Patient/proband",
        "display": "Annie Proband, female, born 1966"
      },
      "name": "Claire",
      "relationship": {
        "coding": [
          {
            "system": "http://terminology.hl7.org/CodeSystem/v3-RoleCode",
            "code": "PGRMTH",
            "display": "paternal grandmother"
          }
        ]
      },
      "deceasedAge": {
        "value": 74,
        "unit": "years",
        "system": "http://unitsofmeasure.org",
        "code": "a"
      }
    },
    {
      "resourceType": "FamilyMemberHistory",
      "id": "7",
      "status": "completed",
      "patient": {
        "reference": "Patient/proband",
        "display": "Annie Proband, female, born 1966"
      },
      "name": "Bob",
      "relationship": {
        "coding": [
          {
            "system": "http://terminology.hl7.org/CodeSystem/v3-RoleCode",
            "code": "PGRFTH",
            "display": "paternal grandfather"
          }
        ]
      },
      "deceasedAge": {
        "value": 73,
        "unit": "years",
        "system": "http://unitsofmeasure.org",
        "code": "a"
      },
      "condition": [
        {
          "code": {
            "coding": [
              {
                "system": "urn:oid:2.16.840.1.113883.3.26.1.1",
                "code": "C2955",
                "display": "Colorectal Carcinoma"
              }
            ]
          },
          "onsetAge": {
            "value": 72,
            "unit": "years",
            "system": "http://unitsofmeasure.org",
            "code": "a"
          }
        }
      ]
    },
    {
      "resourceType": "FamilyMemberHistory",
      "id": "8",
      "extension": [
        {
          "url": "http://hl7.org/fhir/StructureDefinition/family-member-history-genetics-parent",
          "extension": [
            {
              "url": "type",
              "valueCodeableConcept": {
                "coding": [
                  {
                    "system": "http://terminology.hl7.org/CodeSystem/v3-RoleCode",
                    "code": "NMTH",
                    "display": "natural mother"
                  }
                ]
              }
            },
            {
              "url": "reference",
              "valueReference": {
                "reference": "#2"
              }
            }
          ]
        },
        {
          "url": "http://hl7.org/fhir/StructureDefinition/family-member-history-genetics-parent",
          "extension": [
            {
              "url": "type",
              "valueCodeableConcept": {
                "coding": [
                  {
                    "system": "http://terminology.hl7.org/CodeSystem/v3-RoleCode",
                    "code": "NFTH",
                    "display": "natural father"
                  }
                ]
              }
            },
            {
              "url": "reference",
              "valueReference": {
                "reference": "#3"
              }
            }
          ]
        }
      ],
      "status": "completed",
      "patient": {
        "reference": "Patient/proband",
        "display": "Annie Proband, female, born 1966"
      },
      "name": "Brian",
      "relationship": {
        "coding": [
          {
            "system": "http://terminology.hl7.org/CodeSystem/v3-RoleCode",
            "code": "NBRO",
            "display": "natural brother"
          }
        ]
      },
      "ageAge": {
        "value": 32,
        "unit": "years",
        "system": "http://unitsofmeasure.org",
        "code": "a"
      },
      "deceasedBoolean": false,
      "condition": [
        {
          "code": {
            "coding": [
              {
                "system": "urn:oid:2.16.840.1.113883.3.26.1.1",
                "code": "C2955",
                "display": "Rectal Carcinoma"
              }
            ]
          },
          "onsetAge": {
            "value": 32,
            "unit": "years",
            "system": "http://unitsofmeasure.org",
            "code": "a"
          }
        }
      ]
    },
    {
      "resourceType": "FamilyMemberHistory",
      "id": "9",
      "extension": [
        {
          "url": "http://hl7.org/fhir/StructureDefinition/family-member-history-genetics-parent",
          "extension": [
            {
              "url": "type",
              "valueCodeableConcept": {
                "coding": [
                  {
                    "system": "http://terminology.hl7.org/CodeSystem/v3-RoleCode",
                    "code": "NMTH",
                    "display": "natural mother"
                  }
                ]
              }
            },
            {
              "url": "reference",
              "valueReference": {
                "reference": "#2"
              }
            }
          ]
        },
        {
          "url": "http://hl7.org/fhir/StructureDefinition/family-member-history-genetics-parent",
          "extension": [
            {
              "url": "type",
              "valueCodeableConcept": {
                "coding": [
                  {
                    "system": "http://terminology.hl7.org/CodeSystem/v3-RoleCode",
                    "code": "NFTH",
                    "display": "natural father"
                  }
                ]
              }
            },
            {
              "url": "reference",
              "valueReference": {
                "reference": "#3"
              }
            }
          ]
        }
      ],
      "status": "completed",
      "patient": {
        "reference": "Patient/proband",
        "display": "Annie Proband, female, born 1966"
      },
      "name": "Janet",
      "relationship": {
        "coding": [
          {
            "system": "http://terminology.hl7.org/CodeSystem/v3-RoleCode",
            "code": "NSIS",
            "display": "natural sister"
          }
        ]
      },
      "ageAge": {
        "value": 36,
        "unit": "years",
        "system": "http://unitsofmeasure.org",
        "code": "a"
      },
      "deceasedBoolean": false,
      "condition": [
        {
          "code": {
            "coding": [
              {
                "system": "urn:oid:2.16.840.1.113883.3.26.1.1",
                "code": "C2924",
                "display": "Ductal Carcinoma In Situ of the Breast"
              }
            ]
          },
          "onsetAge": {
            "value": 35,
            "unit": "years",
            "system": "http://unitsofmeasure.org",
            "code": "a"
          }
        }
      ]
    },
    {
      "resourceType": "FamilyMemberHistory",
      "id": "10",
      "status": "completed",
      "patient": {
        "reference": "Patient/proband",
        "display": "Annie Proband, female, born 1966"
      },
      "relationship": {
        "coding": [
          {
            "system": "http://terminology.hl7.org/CodeSystem/v3-RoleCode",
            "code": "BROINLAW",
            "display": "brother-in-law"
          }
        ]
      },
      "ageAge": {
        "value": 30,
        "unit": "years",
        "system": "http://unitsofmeasure.org",
        "code": "a"
      }
    },
    {
      "resourceType": "FamilyMemberHistory",
      "id": "11",
      "extension": [
        {
          "url": "http://hl7.org/fhir/StructureDefinition/family-member-history-genetics-parent",
          "extension": [
            {
              "url": "type",
              "valueCodeableConcept": {
                "coding": [
                  {
                    "system": "http://terminology.hl7.org/CodeSystem/v3-RoleCode",
                    "code": "NMTH",
                    "display": "natural mother"
                  }
                ]
              }
            },
            {
              "url": "reference",
              "valueReference": {
                "reference": "#9"
              }
            }
          ]
        },
        {
          "url": "http://hl7.org/fhir/StructureDefinition/family-member-history-genetics-parent",
          "extension": [
            {
              "url": "type",
              "valueCodeableConcept": {
                "coding": [
                  {
                    "system": "http://terminology.hl7.org/CodeSystem/v3-RoleCode",
                    "code": "NFTH",
                    "display": "natural father"
                  }
                ]
              }
            },
            {
              "url": "reference",
              "valueReference": {
                "reference": "#10"
              }
            }
          ]
        }
      ],
      "status": "completed",
      "patient": {
        "reference": "Patient/proband",
        "display": "Annie Proband, female, born 1966"
      },
      "name": "Ian",
      "relationship": {
        "coding": [
          {
            "system": "http://terminology.hl7.org/CodeSystem/v3-RoleCode",
            "code": "NEPHEW",
            "display": "Nephew"
          }
        ]
      },
      "ageAge": {
        "value": 16,
        "unit": "years",
        "system": "http://unitsofmeasure.org",
        "code": "a"
      },
      "deceasedBoolean": false
    },
    {
      "resourceType": "FamilyMemberHistory",
      "id": "12",
      "extension": [
        {
          "url": "http://hl7.org/fhir/StructureDefinition/family-member-history-genetics-parent",
          "extension": [
            {
              "url": "type",
              "valueCodeableConcept": {
                "coding": [
                  {
                    "system": "http://terminology.hl7.org/CodeSystem/v3-RoleCode",
                    "code": "NMTH",
                    "display": "natural mother"
                  }
                ]
              }
            },
            {
              "url": "reference",
              "valueReference": {
                "reference": "#9"
              }
            }
          ]
        },
        {
          "url": "http://hl7.org/fhir/StructureDefinition/family-member-history-genetics-parent",
          "extension": [
            {
              "url": "type",
              "valueCodeableConcept": {
                "coding": [
                  {
                    "system": "http://terminology.hl7.org/CodeSystem/v3-RoleCode",
                    "code": "NFTH",
                    "display": "natural father"
                  }
                ]
              }
            },
            {
              "url": "reference",
              "valueReference": {
                "reference": "#10"
              }
            }
          ]
        }
      ],
      "status": "completed",
      "patient": {
        "reference": "Patient/proband",
        "display": "Annie Proband, female, born 1966"
      },
      "name": "Helen",
      "relationship": {
        "coding": [
          {
            "system": "http://terminology.hl7.org/CodeSystem/v3-RoleCode",
            "code": "NIECE",
            "display": "niece"
          }
        ]
      },
      "ageAge": {
        "value": 15,
        "unit": "years",
        "system": "http://unitsofmeasure.org",
        "code": "a"
      },
      "deceasedBoolean": false,
      "condition": [
        {
          "code": {
            "coding": [
              {
                "code": "657",
                "display": "BRCA2"
              },
              {
                "system": "urn:oid:2.16.840.1.113883.6.133",
                "code": "1101",
                "display": "BRCA2"
              }
            ],
            "text": "BRCA2 breast cancer 2, early onset"
          }
        }
      ]
    },
    {
      "resourceType": "FamilyMemberHistory",
      "id": "13",
      "status": "completed",
      "patient": {
        "reference": "Patient/proband",
        "display": "Annie Proband, female, born 1966"
      },
      "relationship": {
        "coding": [
          {
            "system": "http://terminology.hl7.org/CodeSystem/v3-RoleCode",
            "code": "SIGOTHR",
            "display": "significant other"
          }
        ]
      },
      "ageAge": {
        "value": 35,
        "unit": "years",
        "system": "http://unitsofmeasure.org",
        "code": "a"
      }
    },
    {
      "resourceType": "FamilyMemberHistory",
      "id": "14",
      "extension": [
        {
          "url": "http://hl7.org/fhir/StructureDefinition/family-member-history-genetics-parent",
          "extension": [
            {
              "url": "type",
              "valueCodeableConcept": {
                "coding": [
                  {
                    "system": "http://terminology.hl7.org/CodeSystem/v3-RoleCode",
                    "code": "NMTH",
                    "display": "natural mother"
                  }
                ]
              }
            },
            {
              "url": "reference",
              "valueReference": {
                "reference": "#1"
              }
            }
          ]
        },
        {
          "url": "http://hl7.org/fhir/StructureDefinition/family-member-history-genetics-parent",
          "extension": [
            {
              "url": "type",
              "valueCodeableConcept": {
                "coding": [
                  {
                    "system": "http://terminology.hl7.org/CodeSystem/v3-RoleCode",
                    "code": "NFTH",
                    "display": "natural father"
                  }
                ]
              }
            },
            {
              "url": "reference",
              "valueReference": {
                "reference": "#13"
              }
            }
          ]
        }
      ],
      "status": "completed",
      "patient": {
        "reference": "Patient/proband",
        "display": "Annie Proband, female, born 1966"
      },
      "name": "Susan",
      "relationship": {
        "coding": [
          {
            "system": "http://terminology.hl7.org/CodeSystem/v3-RoleCode",
            "code": "DAU",
            "display": "natural daughter"
          }
        ]
      },
      "ageAge": {
        "value": 17,
        "unit": "years",
        "system": "http://unitsofmeasure.org",
        "code": "a"
      }
    },
    {
      "resourceType": "FamilyMemberHistory",
      "id": "15",
      "extension": [
        {
          "url": "http://hl7.org/fhir/StructureDefinition/family-member-history-genetics-parent",
          "extension": [
            {
              "url": "type",
              "valueCodeableConcept": {
                "coding": [
                  {
                    "system": "http://terminology.hl7.org/CodeSystem/v3-RoleCode",
                    "code": "NMTH",
                    "display": "natural mother"
                  }
                ]
              }
            },
            {
              "url": "reference",
              "valueReference": {
                "reference": "#6"
              }
            }
          ]
        },
        {
          "url": "http://hl7.org/fhir/StructureDefinition/family-member-history-genetics-parent",
          "extension": [
            {
              "url": "type",
              "valueCodeableConcept": {
                "coding": [
                  {
                    "system": "http://terminology.hl7.org/CodeSystem/v3-RoleCode",
                    "code": "NFTH",
                    "display": "natural father"
                  }
                ]
              }
            },
            {
              "url": "reference",
              "valueReference": {
                "reference": "#7"
              }
            }
          ]
        }
      ],
      "status": "completed",
      "patient": {
        "reference": "Patient/proband",
        "display": "Annie Proband, female, born 1966"
      },
      "relationship": {
        "coding": [
          {
            "system": "http://terminology.hl7.org/CodeSystem/v3-RoleCode",
            "code": "PUNCLE",
            "display": "paternal uncle"
          }
        ]
      },
      "ageAge": {
        "value": 56,
        "unit": "years",
        "system": "http://unitsofmeasure.org",
        "code": "a"
      }
    },
    {
      "resourceType": "FamilyMemberHistory",
      "id": "16",
      "extension": [
        {
          "url": "http://hl7.org/fhir/StructureDefinition/family-member-history-genetics-parent",
          "extension": [
            {
              "url": "type",
              "valueCodeableConcept": {
                "coding": [
                  {
                    "system": "http://terminology.hl7.org/CodeSystem/v3-RoleCode",
                    "code": "NMTH",
                    "display": "natural mother"
                  }
                ]
              }
            },
            {
              "url": "reference",
              "valueReference": {
                "reference": "#6"
              }
            }
          ]
        },
        {
          "url": "http://hl7.org/fhir/StructureDefinition/family-member-history-genetics-parent",
          "extension": [
            {
              "url": "type",
              "valueCodeableConcept": {
                "coding": [
                  {
                    "system": "http://terminology.hl7.org/CodeSystem/v3-RoleCode",
                    "code": "NFTH",
                    "display": "natural father"
                  }
                ]
              }
            },
            {
              "url": "reference",
              "valueReference": {
                "reference": "#7"
              }
            }
          ]
        }
      ],
      "status": "completed",
      "patient": {
        "reference": "Patient/proband",
        "display": "Annie Proband, female, born 1966"
      },
      "relationship": {
        "coding": [
          {
            "system": "http://terminology.hl7.org/CodeSystem/v3-RoleCode",
            "code": "PAUNT",
            "display": "paternal aunt"
          }
        ]
      },
      "ageAge": {
        "value": 57,
        "unit": "years",
        "system": "http://unitsofmeasure.org",
        "code": "a"
      },
      "condition": [
        {
          "code": {
            "coding": [
              {
                "system": "urn:oid:2.16.840.1.113883.3.26.1.1",
                "code": "C3224",
                "display": "Melanoma"
              }
            ]
          }
        }
      ]
    },
    {
      "resourceType": "FamilyMemberHistory",
      "id": "17",
      "extension": [
        {
          "url": "http://hl7.org/fhir/StructureDefinition/family-member-history-genetics-parent",
          "extension": [
            {
              "url": "type",
              "valueCodeableConcept": {
                "coding": [
                  {
                    "system": "http://terminology.hl7.org/CodeSystem/v3-RoleCode",
                    "code": "NMTH",
                    "display": "natural mother"
                  }
                ]
              }
            },
            {
              "url": "reference",
              "valueReference": {
                "reference": "#4"
              }
            }
          ]
        },
        {
          "url": "http://hl7.org/fhir/StructureDefinition/family-member-history-genetics-parent",
          "extension": [
            {
              "url": "type",
              "valueCodeableConcept": {
                "coding": [
                  {
                    "system": "http://terminology.hl7.org/CodeSystem/v3-RoleCode",
                    "code": "NFTH",
                    "display": "natural father"
                  }
                ]
              }
            },
            {
              "url": "reference",
              "valueReference": {
                "reference": "#5"
              }
            }
          ]
        }
      ],
      "status": "completed",
      "patient": {
        "reference": "Patient/proband",
        "display": "Annie Proband, female, born 1966"
      },
      "relationship": {
        "coding": [
          {
            "system": "http://terminology.hl7.org/CodeSystem/v3-RoleCode",
            "code": "MUNCLE",
            "display": "maternal uncle"
          }
        ]
      },
      "ageAge": {
        "value": 60,
        "unit": "years",
        "system": "http://unitsofmeasure.org",
        "code": "a"
      }
    },
    {
      "resourceType": "FamilyMemberHistory",
      "id": "18",
      "extension": [
        {
          "url": "http://hl7.org/fhir/StructureDefinition/family-member-history-genetics-parent",
          "extension": [
            {
              "url": "type",
              "valueCodeableConcept": {
                "coding": [
                  {
                    "system": "http://terminology.hl7.org/CodeSystem/v3-RoleCode",
                    "code": "NMTH",
                    "display": "natural mother"
                  }
                ]
              }
            },
            {
              "url": "reference",
              "valueReference": {
                "reference": "#4"
              }
            }
          ]
        },
        {
          "url": "http://hl7.org/fhir/StructureDefinition/family-member-history-genetics-parent",
          "extension": [
            {
              "url": "type",
              "valueCodeableConcept": {
                "coding": [
                  {
                    "system": "http://terminology.hl7.org/CodeSystem/v3-RoleCode",
                    "code": "NFTH",
                    "display": "natural father"
                  }
                ]
              }
            },
            {
              "url": "reference",
              "valueReference": {
                "reference": "#5"
              }
            }
          ]
        }
      ],
      "status": "completed",
      "patient": {
        "reference": "Patient/proband",
        "display": "Annie Proband, female, born 1966"
      },
      "relationship": {
        "coding": [
          {
            "system": "http://terminology.hl7.org/CodeSystem/v3-RoleCode",
            "code": "MAUNT",
            "display": "maternal aunt"
          }
        ]
      },
      "ageAge": {
        "value": 57,
        "unit": "years",
        "system": "http://unitsofmeasure.org",
        "code": "a"
      }
    },
    {
      "resourceType": "FamilyMemberHistory",
      "id": "19",
      "status": "completed",
      "patient": {
        "reference": "Patient/proband",
        "display": "Annie Proband, female, born 1966"
      },
      "relationship": {
        "coding": [
          {
            "system": "http://terminology.hl7.org/CodeSystem/v3-RoleCode",
            "code": "EXT",
            "display": "extended family member"
          }
        ]
      }
    },
    {
      "resourceType": "FamilyMemberHistory",
      "id": "20",
      "extension": [
        {
          "url": "http://hl7.org/fhir/StructureDefinition/family-member-history-genetics-parent",
          "extension": [
            {
              "url": "type",
              "valueCodeableConcept": {
                "coding": [
                  {
                    "system": "http://terminology.hl7.org/CodeSystem/v3-RoleCode",
                    "code": "NMTH",
                    "display": "natural mother"
                  }
                ]
              }
            },
            {
              "url": "reference",
              "valueReference": {
                "reference": "#18"
              }
            }
          ]
        },
        {
          "url": "http://hl7.org/fhir/StructureDefinition/family-member-history-genetics-parent",
          "extension": [
            {
              "url": "type",
              "valueCodeableConcept": {
                "coding": [
                  {
                    "system": "http://terminology.hl7.org/CodeSystem/v3-RoleCode",
                    "code": "NFTH",
                    "display": "natural father"
                  }
                ]
              }
            },
            {
              "url": "reference",
              "valueReference": {
                "reference": "#19"
              }
            }
          ]
        }
      ],
      "status": "completed",
      "patient": {
        "reference": "Patient/proband",
        "display": "Annie Proband, female, born 1966"
      },
      "relationship": {
        "coding": [
          {
            "system": "http://terminology.hl7.org/CodeSystem/v3-RoleCode",
            "code": "MCOUSN",
            "display": "maternal cousin"
          }
        ]
      },
      "sex": {
        "coding": [
          {
            "system": "http://hl7.org/fhir/administrative-gender",
            "code": "female",
            "display": "Female"
          }
        ]
      },
      "ageAge": {
        "value": 30,
        "unit": "years",
        "system": "http://unitsofmeasure.org",
        "code": "a"
      },
      "condition": [
        {
          "code": {
            "coding": [
              {
                "system": "urn:oid:2.16.840.1.113883.3.26.1.1",
                "code": "C4872",
                "display": "Breast Carcinoma"
              }
            ]
          },
          "onsetAge": {
            "value": 30,
            "unit": "years",
            "system": "http://unitsofmeasure.org",
            "code": "a"
          }
        }
      ]
    },
    {
      "resourceType": "FamilyMemberHistory",
      "id": "21",
      "extension": [
        {
          "url": "http://hl7.org/fhir/StructureDefinition/family-member-history-genetics-parent",
          "extension": [
            {
              "url": "type",
              "valueCodeableConcept": {
                "coding": [
                  {
                    "system": "http://terminology.hl7.org/CodeSystem/v3-RoleCode",
                    "code": "NMTH",
                    "display": "natural mother"
                  }
                ]
              }
            },
            {
              "url": "reference",
              "valueReference": {
                "reference": "#18"
              }
            }
          ]
        },
        {
          "url": "http://hl7.org/fhir/StructureDefinition/family-member-history-genetics-parent",
          "extension": [
            {
              "url": "type",
              "valueCodeableConcept": {
                "coding": [
                  {
                    "system": "http://terminology.hl7.org/CodeSystem/v3-RoleCode",
                    "code": "NFTH",
                    "display": "natural father"
                  }
                ]
              }
            },
            {
              "url": "reference",
              "valueReference": {
                "reference": "#19"
              }
            }
          ]
        }
      ],
      "status": "completed",
      "patient": {
        "reference": "Patient/proband",
        "display": "Annie Proband, female, born 1966"
      },
      "relationship": {
        "coding": [
          {
            "system": "http://terminology.hl7.org/CodeSystem/v3-RoleCode",
            "code": "MCOUSN",
            "display": "maternal cousin"
          }
        ]
      },
      "sex": {
        "coding": [
          {
            "system": "http://hl7.org/fhir/administrative-gender",
            "code": "female",
            "display": "Female"
          }
        ]
      },
      "ageAge": {
        "value": 31,
        "unit": "years",
        "system": "http://unitsofmeasure.org",
        "code": "a"
      }
    }
  ],
  "status": "current",
  "mode": "snapshot",
  "code": {
    "coding": [
      {
        "system": "http://loinc.org",
        "code": "8670-2",
        "display": "History of family member diseases"
      }
    ]
  },
  "subject": {
    "reference": "Patient/proband",
    "display": "Annie Proband, female, born 1966"
  },
  "entry": [
    {
      "item": {
        "reference": "#image"
      }
    },
    {
      "item": {
        "reference": "#2"
      }
    },
    {
      "item": {
        "reference": "#3"
      }
    },
    {
      "item": {
        "reference": "#4"
      }
    },
    {
      "item": {
        "reference": "#5"
      }
    },
    {
      "item": {
        "reference": "#6"
      }
    },
    {
      "item": {
        "reference": "#7"
      }
    },
    {
      "item": {
        "reference": "#8"
      }
    },
    {
      "item": {
        "reference": "#9"
      }
    },
    {
      "item": {
        "reference": "#10"
      }
    },
    {
      "item": {
        "reference": "#11"
      }
    },
    {
      "item": {
        "reference": "#12"
      }
    },
    {
      "item": {
        "reference": "#13"
      }
    },
    {
      "item": {
        "reference": "#14"
      }
    },
    {
      "item": {
        "reference": "#15"
      }
    },
    {
      "item": {
        "reference": "#16"
      }
    },
    {
      "item": {
        "reference": "#17"
      }
    },
    {
      "item": {
        "reference": "#18"
      }
    },
    {
      "item": {
        "reference": "#19"
      }
    },
    {
      "item": {
        "reference": "#20"
      }
    },
    {
      "item": {
        "reference": "#21"
      }
    }
  ],
  "meta": {
    "tag": [
      {
        "system": "http://terminology.hl7.org/CodeSystem/v3-ActReason",
        "code": "HTEST",
        "display": "test health data"
      }
    ]
  }
}