{
  "resourceType": "Bundle",
  "id": "EXM349-FHIR4-2.9.000-bundle",
  "type": "transaction",
  "entry": [
    {
      "resource": {
        "resourceType": "ValueSet",
        "id": "2.16.840.1.114222.4.11.836",
        "url": "http://cts.nlm.nih.gov/fhir/ValueSet/2.16.840.1.114222.4.11.836",
        "identifier": [
          {
            "system": "urn:ietf:rfc:3986",
            "value": "2.16.840.1.114222.4.11.836"
          }
        ],
        "version": "20121025",
        "name": "Race",
        "title": "Race",
        "status": "active",
        "publisher": "NLM",
        "compose": {
          "include": [
            {
              "system": "http://www.cdc.gov/phin/resources/vocabulary/index.html",
              "version": "1.2",
              "concept": [
                {
                  "code": "1002-5",
                  "display": "American Indian or Alaska Native"
                },
                {
                  "code": "2028-9",
                  "display": "Asian"
                },
                {
                  "code": "2054-5",
                  "display": "Black or African American"
                },
                {
                  "code": "2076-8",
                  "display": "Native Hawaiian or Other Pacific Islander"
                },
                {
                  "code": "2106-3",
                  "display": "White"
                },
                {
                  "code": "2131-1",
                  "display": "Other Race"
                }
              ]
            }
          ]
        }
      },
      "request": {
        "method": "PUT",
        "url": "ValueSet/2.16.840.1.114222.4.11.836"
      }
    },
    {
      "resource": {
        "resourceType": "ValueSet",
        "id": "2.16.840.1.114222.4.11.837",
        "url": "http://cts.nlm.nih.gov/fhir/ValueSet/2.16.840.1.114222.4.11.837",
        "identifier": [
          {
            "system": "urn:ietf:rfc:3986",
            "value": "2.16.840.1.114222.4.11.837"
          }
        ],
        "version": "20121025",
        "name": "Ethnicity",
        "title": "Ethnicity",
        "status": "active",
        "publisher": "NLM",
        "compose": {
          "include": [
            {
              "system": "http://www.cdc.gov/phin/resources/vocabulary/index.html",
              "version": "1.2",
              "concept": [
                {
                  "code": "2135-2",
                  "display": "Hispanic or Latino"
                },
                {
                  "code": "2186-5",
                  "display": "Not Hispanic or Latino"
                }
              ]
            }
          ]
        }
      },
      "request": {
        "method": "PUT",
        "url": "ValueSet/2.16.840.1.114222.4.11.837"
      }
    },
    {
      "resource": {
        "resourceType": "Patient",
        "id": "denom-EXM349-FHIR4",
        "meta": {
          "profile": [
            "http://hl7.org/fhir/us/core/StructureDefinition/us-core-patient"
          ]
        },
        "identifier": [
          {
            "use": "usual",
            "type": {
              "coding": [
                {
                  "system": "http://terminology.hl7.org/CodeSystem/v2-0203",
                  "code": "MR",
                  "display": "Medical Record Number"
                }
              ]
            },
            "system": "http://hospital.smarthealthit.org",
            "value": "999999992"
          }
        ],
        "name": [
          {
            "family": "Dere",
            "given": [
              "Ben"
            ]
          }
        ],
        "gender": "male",
        "birthDate": "1983-01-01"
      },
      "request": {
        "method": "PUT",
        "url": "Patient/denom-EXM349-FHIR4"
      }
    },
    {
      "resource": {
        "resourceType": "Library",
        "id": "library-FHIRHelpers-4.0.0",
        "text": {
          "status": "generated",
          "div": "<div xmlns=\"http://www.w3.org/1999/xhtml\"><table class=\"grid dict\"><tr><th scope=\"row\"><b>Id: </b></th><td style=\"padding-left: 25px; padding-right: 25px;\">library-FHIRHelpers-4.0.0</td></tr><tr><th scope=\"row\"><b>Type: </b></th><td style=\"padding-right: 25px;\"> logic-library </td></tr><tr><th scope=\"row\"><b>Version: </b></th><td style=\"padding-left: 25px; padding-right: 25px;\">4.0.0</td></tr><tr><th scope=\"row\"><b>Status: </b></th><td style=\"padding-left: 25px; padding-right: 25px;\">active</td></tr><tr style=\"vertical-align: top;\"><th scope=\"row\"><b>Content: </b></th><td style=\"padding-left: 25px; padding-right: 25px;\"><b>type: </b><span>text/cql</span></td></tr><tr><td colspan=\"2\" style=\"padding-left: 25px; padding-right: 25px;\"><pre><code class=\"language-cql\">library FHIRHelpers version '4.0.0'\n\nusing FHIR version '4.0.0'\n\ndefine function ToInterval(period FHIR.Period):\n    if period is null then\n        null\n    else\n        Interval[period.&quot;start&quot;.value, period.&quot;end&quot;.value]\n\ndefine function ToQuantity(quantity FHIR.Quantity):\n    if quantity is null then\n        null\n    else\n        System.Quantity { value: quantity.value.value, unit: quantity.unit.value }\n\ndefine function ToInterval(range FHIR.Range):\n    if range is null then\n        null\n    else\n        Interval[ToQuantity(range.low), ToQuantity(range.high)]\n\ndefine function ToCode(coding FHIR.Coding):\n    if coding is null then\n        null\n    else\n        System.Code {\n          code: coding.code.value,\n          system: coding.system.value,\n          version: coding.version.value,\n          display: coding.display.value\n        }\n\ndefine function ToConcept(concept FHIR.CodeableConcept):\n    if concept is null then\n        null\n    else\n        System.Concept {\n            codes: concept.coding C return ToCode(C),\n            display: concept.text.value\n        }\n\ndefine function ToString(value FHIR.uuid): value.value\ndefine function ToString(value FHIR.TestScriptRequestMethodCode): value.value\ndefine function ToString(value FHIR.SortDirection): value.value\ndefine function ToString(value FHIR.BiologicallyDerivedProductStatus): value.value\ndefine function ToString(value FHIR.UnitsOfTime): value.value\ndefine function ToString(value FHIR.AddressType): value.value\ndefine function ToString(value FHIR.AllergyIntoleranceCategory): value.value\ndefine function ToString(value FHIR.IssueSeverity): value.value\ndefine function ToString(value FHIR.CareTeamStatus): value.value\ndefine function ToString(value FHIR.EncounterStatus): value.value\ndefine function ToString(value FHIR.StructureDefinitionKind): value.value\ndefine function ToString(value FHIR.PublicationStatus): value.value\ndefine function ToString(value FHIR.FHIRVersion): value.value\ndefine function ToString(value FHIR.CarePlanActivityKind): value.value\ndefine function ToString(value FHIR.StructureMapSourceListMode): value.value\ndefine function ToString(value FHIR.RequestStatus): value.value\ndefine function ToString(value FHIR.strandType): value.value\ndefine function ToString(value FHIR.QuestionnaireResponseStatus): value.value\ndefine function ToString(value FHIR.SearchComparator): value.value\ndefine function ToString(value FHIR.ChargeItemStatus): value.value\ndefine function ToString(value FHIR.ActionParticipantType): value.value\ndefine function ToString(value FHIR.AllergyIntoleranceType): value.value\ndefine function ToString(value FHIR.CarePlanActivityStatus): value.value\ndefine function ToString(value FHIR.InvoiceStatus): value.value\ndefine function ToString(value FHIR.ClaimProcessingCodes): value.value\ndefine function ToString(value FHIR.RequestResourceType): value.value\ndefine function ToString(value FHIR.ParticipationStatus): value.value\ndefine function ToString(value FHIR.DeviceNameType): value.value\ndefine function ToString(value FHIR.DocumentMode): value.value\ndefine function ToString(value FHIR.AssertionOperatorType): value.value\ndefine function ToString(value FHIR.DaysOfWeek): value.value\ndefine function ToString(value FHIR.IssueType): value.value\ndefine function ToString(value FHIR.canonical): value.value\ndefine function ToString(value FHIR.StructureMapContextType): value.value\ndefine function ToString(value FHIR.FamilyHistoryStatus): value.value\ndefine function ToString(value FHIR.status): value.value\ndefine function ToString(value FHIR.ExtensionContextType): value.value\ndefine function ToString(value FHIR.AssertionResponseTypes): value.value\ndefine function ToString(value FHIR.RequestIntent): value.value\ndefine function ToString(value FHIR.string): value.value\ndefine function ToString(value FHIR.ActionRequiredBehavior): value.value\ndefine function ToString(value FHIR.GraphCompartmentUse): value.value\ndefine function ToString(value FHIR.orientationType): value.value\ndefine function ToString(value FHIR.AccountStatus): value.value\ndefine function ToString(value FHIR.IdentifierUse): value.value\ndefine function ToString(value FHIR.StructureMapTargetListMode): value.value\ndefine function ToString(value FHIR.ExposureState): value.value\ndefine function ToString(value FHIR.TestReportParticipantType): value.value\ndefine function ToString(value FHIR.BindingStrength): value.value\ndefine function ToString(value FHIR.RequestPriority): value.value\ndefine function ToString(value FHIR.ParticipantRequired): value.value\ndefine function ToString(value FHIR.XPathUsageType): value.value\ndefine function ToString(value FHIR.id): value.value\ndefine function ToString(value FHIR.FilterOperator): value.value\ndefine function ToString(value FHIR.NamingSystemType): value.value\ndefine function ToString(value FHIR.ContractResourceStatusCodes): value.value\ndefine function ToString(value FHIR.ResearchSubjectStatus): value.value\ndefine function ToString(value FHIR.StructureMapTransform): value.value\ndefine function ToString(value FHIR.ResponseType): value.value\ndefine function ToDecimal(value FHIR.decimal): value.value\ndefine function ToString(value FHIR.AggregationMode): value.value\ndefine function ToString(value FHIR.sequenceType): value.value\ndefine function ToString(value FHIR.SystemRestfulInteraction): value.value\ndefine function ToString(value FHIR.AdverseEventActuality): value.value\ndefine function ToString(value FHIR.SubscriptionChannelType): value.value\ndefine function ToString(value FHIR.AssertionDirectionType): value.value\ndefine function ToString(value FHIR.CarePlanIntent): value.value\ndefine function ToString(value FHIR.AllergyIntoleranceCriticality): value.value\ndefine function ToString(value FHIR.PropertyRepresentation): value.value\ndefine function ToString(value FHIR.TriggerType): value.value\ndefine function ToString(value FHIR.CompositionStatus): value.value\ndefine function ToString(value FHIR.AppointmentStatus): value.value\ndefine function ToString(value FHIR.MessageSignificanceCategory): value.value\ndefine function ToString(value FHIR.ListMode): value.value\ndefine function ToString(value FHIR.ResearchElementType): value.value\ndefine function ToString(value FHIR.ObservationStatus): value.value\ndefine function ToString(value FHIR.ResourceType): value.value\ndefine function ToBoolean(value FHIR.boolean): value.value\ndefine function ToString(value FHIR.StructureMapGroupTypeMode): value.value\ndefine function ToString(value FHIR.SupplyRequestStatus): value.value\ndefine function ToString(value FHIR.EncounterLocationStatus): value.value\ndefine function ToString(value FHIR.ConditionalDeleteStatus): value.value\ndefine function ToString(value FHIR.url): value.value\ndefine function ToString(value FHIR.uri): value.value\ndefine function ToString(value FHIR.Use): value.value\ndefine function ToString(value FHIR.MedicationRequestStatus): value.value\ndefine function ToString(value FHIR.IdentityAssuranceLevel): value.value\ndefine function ToString(value FHIR.DeviceMetricColor): value.value\ndefine function ToTime(value FHIR.time): value.value\ndefine function ToString(value FHIR.ConditionalReadStatus): value.value\ndefine function ToString(value FHIR.AllergyIntoleranceSeverity): value.value\ndefine function ToString(value FHIR.FinancialResourceStatusCodes): value.value\ndefine function ToString(value FHIR.OperationKind): value.value\ndefine function ToString(value FHIR.SubscriptionStatus): value.value\ndefine function ToString(value FHIR.GoalLifecycleStatus): value.value\ndefine function ToString(value FHIR.ObservationDataType): value.value\ndefine function ToString(value FHIR.DocumentReferenceStatus): value.value\ndefine function ToString(value FHIR.repositoryType): value.value\ndefine function ToString(value FHIR.LocationStatus): value.value\ndefine function ToString(value FHIR.NoteType): value.value\ndefine function ToString(value FHIR.TestReportStatus): value.value\ndefine function ToString(value FHIR.CodeSystemContentMode): value.value\ndefine function ToString(value FHIR.FHIRDeviceStatus): value.value\ndefine function ToString(value FHIR.ContactPointSystem): value.value\ndefine function ToString(value FHIR.SlotStatus): value.value\ndefine function ToString(value FHIR.PropertyType): value.value\ndefine function ToString(value FHIR.TypeDerivationRule): value.value\ndefine function ToString(value FHIR.GuidanceResponseStatus): value.value\ndefine function ToString(value FHIR.RelatedArtifactType): value.value\ndefine function ToString(value FHIR.oid): value.value\ndefine function ToString(value FHIR.CompartmentType): value.value\ndefine function ToString(value FHIR.MedicationRequestIntent): value.value\ndefine function ToString(value FHIR.InvoicePriceComponentType): value.value\ndefine function ToString(value FHIR.DeviceMetricCalibrationState): value.value\ndefine function ToString(value FHIR.GroupType): value.value\ndefine function ToString(value FHIR.EnableWhenBehavior): value.value\ndefine function ToString(value FHIR.TaskIntent): value.value\ndefine function ToString(value FHIR.ImmunizationEvaluationStatusCodes): value.value\ndefine function ToString(value FHIR.ExampleScenarioActorType): value.value\ndefine function ToString(value FHIR.ProvenanceEntityRole): value.value\ndefine function ToString(value FHIR.SpecimenStatus): value.value\ndefine function ToString(value FHIR.RestfulCapabilityMode): value.value\ndefine function ToString(value FHIR.DetectedIssueSeverity): value.value\ndefine function ToString(value FHIR.VisionEyes): value.value\ndefine function ToString(value FHIR.ConsentDataMeaning): value.value\ndefine function ToString(value FHIR.messageheaderResponseRequest): value.value\ndefine function ToString(value FHIR.GuidePageGeneration): value.value\ndefine function ToString(value FHIR.DocumentRelationshipType): value.value\ndefine function ToString(value FHIR.VariableType): value.value\ndefine function ToString(value FHIR.TestReportResult): value.value\ndefine function ToString(value FHIR.ConceptMapGroupUnmappedMode): value.value\ndefine function ToDateTime(value FHIR.instant): value.value\ndefine function ToDateTime(value FHIR.dateTime): value.value\ndefine function ToDate(value FHIR.date): value.value\ndefine function ToInteger(value FHIR.positiveInt): value.value\ndefine function ToString(value FHIR.ClinicalImpressionStatus): value.value\ndefine function ToString(value FHIR.EligibilityResponsePurpose): value.value\ndefine function ToString(value FHIR.NarrativeStatus): value.value\ndefine function ToString(value FHIR.ImagingStudyStatus): value.value\ndefine function ToString(value FHIR.EndpointStatus): value.value\ndefine function ToString(value FHIR.BiologicallyDerivedProductCategory): value.value\ndefine function ToString(value FHIR.ResourceVersionPolicy): value.value\ndefine function ToString(value FHIR.ActionCardinalityBehavior): value.value\ndefine function ToString(value FHIR.GroupMeasure): value.value\ndefine function ToString(value FHIR.NamingSystemIdentifierType): value.value\ndefine function ToString(value FHIR.ImmunizationStatusCodes): value.value\ndefine function ToString(value FHIR.MedicationStatusCodes): value.value\ndefine function ToString(value FHIR.DiscriminatorType): value.value\ndefine function ToString(value FHIR.StructureMapInputMode): value.value\ndefine function ToString(value FHIR.LinkageType): value.value\ndefine function ToString(value FHIR.ReferenceHandlingPolicy): value.value\ndefine function ToString(value FHIR.ResearchStudyStatus): value.value\ndefine function ToString(value FHIR.AuditEventOutcome): value.value\ndefine function ToString(value FHIR.SpecimenContainedPreference): value.value\ndefine function ToString(value FHIR.ActionRelationshipType): value.value\ndefine function ToString(value FHIR.ConstraintSeverity): value.value\ndefine function ToString(value FHIR.EventCapabilityMode): value.value\ndefine function ToString(value FHIR.CodeSearchSupport): value.value\ndefine function ToString(value FHIR.ObservationRangeCategory): value.value\ndefine function ToString(value FHIR.UDIEntryType): value.value\ndefine function ToString(value FHIR.DeviceMetricCategory): value.value\ndefine function ToString(value FHIR.TestReportActionResult): value.value\ndefine function ToString(value FHIR.CapabilityStatementKind): value.value\ndefine function ToString(value FHIR.EventTiming): value.value\ndefine function ToString(value FHIR.SearchParamType): value.value\ndefine function ToString(value FHIR.ActionGroupingBehavior): value.value\ndefine function ToString(value FHIR.StructureMapModelMode): value.value\ndefine function ToString(value FHIR.TaskStatus): value.value\ndefine function ToString(value FHIR.BiologicallyDerivedProductStorageScale): value.value\ndefine function ToString(value FHIR.GraphCompartmentRule): value.value\ndefine function ToString(value FHIR.SlicingRules): value.value\ndefine function ToString(value FHIR.ExplanationOfBenefitStatus): value.value\ndefine function ToString(value FHIR.GuideParameterCode): value.value\ndefine function ToString(value FHIR.CatalogEntryRelationType): value.value\ndefine function ToString(value FHIR.LinkType): value.value\ndefine function ToString(value FHIR.ConceptMapEquivalence): value.value\ndefine function ToString(value FHIR.AuditEventAction): value.value\ndefine function ToString(value FHIR.SearchModifierCode): value.value\ndefine function ToString(value FHIR.EventStatus): value.value\ndefine function ToString(value FHIR.OperationParameterUse): value.value\ndefine function ToString(value FHIR.ConsentProvisionType): value.value\ndefine function ToString(value FHIR.ActionConditionKind): value.value\ndefine function ToString(value FHIR.qualityType): value.value\ndefine function ToString(value FHIR.AdministrativeGender): value.value\ndefine function ToString(value FHIR.QuestionnaireItemType): value.value\ndefine function ToString(value FHIR.DeviceMetricCalibrationType): value.value\ndefine function ToString(value FHIR.EvidenceVariableType): value.value\ndefine function ToString(value FHIR.code): value.value\ndefine function ToString(value FHIR.ActionSelectionBehavior): value.value\ndefine function ToString(value FHIR.SupplyDeliveryStatus): value.value\ndefine function ToString(value FHIR.DiagnosticReportStatus): value.value\ndefine function ToString(value FHIR.FlagStatus): value.value\ndefine function ToString(value FHIR.SPDXLicense): value.value\ndefine function ToString(value FHIR.ListStatus): value.value\ndefine function ToString(value FHIR.base64Binary): value.value\ndefine function ToString(value FHIR.DeviceUseStatementStatus): value.value\ndefine function ToString(value FHIR.AuditEventAgentNetworkType): value.value\ndefine function ToString(value FHIR.ExpressionLanguage): value.value\ndefine function ToString(value FHIR.AddressUse): value.value\ndefine function ToString(value FHIR.ContactPointUse): value.value\ndefine function ToString(value FHIR.DeviceMetricOperationalStatus): value.value\ndefine function ToString(value FHIR.ContributorType): value.value\ndefine function ToString(value FHIR.ReferenceVersionRules): value.value\ndefine function ToString(value FHIR.MeasureReportStatus): value.value\ndefine function ToString(value FHIR.SearchEntryMode): value.value\ndefine function ToInteger(value FHIR.unsignedInt): value.value\ndefine function ToString(value FHIR.NameUse): value.value\ndefine function ToString(value FHIR.LocationMode): value.value\ndefine function ToInteger(value FHIR.integer): value.value\ndefine function ToString(value FHIR.FHIRSubstanceStatus): value.value\ndefine function ToString(value FHIR.QuestionnaireItemOperator): value.value\ndefine function ToString(value FHIR.HTTPVerb): value.value\ndefine function ToString(value FHIR.EpisodeOfCareStatus): value.value\ndefine function ToString(value FHIR.RemittanceOutcome): value.value\ndefine function ToString(value FHIR.markdown): value.value\ndefine function ToString(value FHIR.EligibilityRequestPurpose): value.value\ndefine function ToString(value FHIR.QuantityComparator): value.value\ndefine function ToString(value FHIR.MeasureReportType): value.value\ndefine function ToString(value FHIR.ActionPrecheckBehavior): value.value\ndefine function ToString(value FHIR.SampledDataDataType): value.value\ndefine function ToString(value FHIR.CompositionAttestationMode): value.value\ndefine function ToString(value FHIR.TypeRestfulInteraction): value.value\ndefine function ToString(value FHIR.CodeSystemHierarchyMeaning): value.value\ndefine function ToString(value FHIR.vConfidentialityClassification): value.value\ndefine function ToString(value FHIR.ContractResourcePublicationStatusCodes): value.value\ndefine function ToString(value FHIR.VisionBase): value.value\ndefine function ToString(value FHIR.BundleType): value.value\n</code></pre>\n                    \n                    \n                </td>\n            </tr>\n        \n    </table>\n</div>"
        },
        "version": "4.0.0",
        "name": "FHIRHelpers",
        "status": "active",
        "experimental": true,
        "type": {
          "coding": [
            {
              "system": "http://hl7.org/fhir/codesystem-library-type.html",
              "code": "logic-library"
            }
          ]
        },
        "content": [
          {
            "contentType": "application/elm+xml",
            "data": ""
          },
          {
            "contentType": "text/cql",
            "data": ""
          },
          {
            "contentType": "application/elm+xml",
            "data": ""
          },
          {
            "contentType": "text/cql",
            "data": ""
          }
        ]
      },
      "request": {
        "method": "PUT",
        "url": "Library/library-FHIRHelpers-4.0.0"
      }
    },
    {
      "resource": {
        "resourceType": "Library",
        "id": "library-EXM349-FHIR4-2.9.000",
        "text": {
          "status": "generated",
          "div": "<div xmlns=\"http://www.w3.org/1999/xhtml\"><table class=\"grid dict\"><tr><th scope=\"row\"><b>Id: </b></th><td style=\"padding-left: 25px; padding-right: 25px;\">library-EXM349-FHIR4-2.9.000</td></tr><tr><th scope=\"row\"><b>Type: </b></th><td style=\"padding-right: 25px;\"> logic-library </td></tr><tr><th scope=\"row\"><b>Version: </b></th><td style=\"padding-left: 25px; padding-right: 25px;\">2.9.000</td></tr><tr><th scope=\"row\"><b>Status: </b></th><td style=\"padding-left: 25px; padding-right: 25px;\">active</td></tr><tr style=\"vertical-align: top;\"><th rowspan=\"3\" scope=\"row\"><b>Related: </b></th><td style=\"padding-left: 25px; padding-right: 25px;\"><p style=\"margin-bottom: 5px;\"><b>type: </b><span>depends-on</span></p><p style=\"margin-bottom: 5px;\"><b>Resource: </b><br/><span>Library/library-FHIRHelpers-4.0.0</span></p></td></tr><tr style=\"vertical-align: top;\"><td style=\"padding-left: 25px; padding-right: 25px;\"><p style=\"margin-bottom: 5px;\"><b>type: </b><span>depends-on</span></p><p style=\"margin-bottom: 5px;\"><b>Resource: </b><br/><span>Library/library-MATGlobalCommonFunctions-FHIR4-4.0.000</span></p></td></tr><tr style=\"vertical-align: top;\"><td style=\"padding-left: 25px; padding-right: 25px;\"><p style=\"margin-bottom: 5px;\"><b>type: </b><span>depends-on</span></p><p style=\"margin-bottom: 5px;\"><b>Resource: </b><br/><span>Library/library-SupplementalDataElements-FHIR4-1.0.0</span></p></td></tr><tr style=\"vertical-align: top;\"><th rowspan=\"8\" scope=\"row\"><b>Data Requirements: </b></th><td style=\"padding-left: 25px; padding-right: 25px;\"><div xmlns=\"http://www.w3.org/1999/xhtml\"><p style=\"margin-bottom: 5px;\"><b>type: </b><span>Encounter</span></p><p style=\"margin-bottom: 5px;\"><b>code filter:</b><br/><span style=\"padding-left: 25px;\"><b>path: </b><span>type</span></span><br/><span style=\"padding-left: 25px;\"><b>valueset: </b><span>http://cts.nlm.nih.gov/fhir/ValueSet/2.16.840.1.113883.3.464.1003.101.12.1022</span></span></p></div></td></tr><tr style=\"vertical-align: top;\"><td style=\"padding-left: 25px; padding-right: 25px;\"><div xmlns=\"http://www.w3.org/1999/xhtml\"><p style=\"margin-bottom: 5px;\"><b>type: </b><span>Encounter</span></p><p style=\"margin-bottom: 5px;\"><b>code filter:</b><br/><span style=\"padding-left: 25px;\"><b>path: </b><span>type</span></span><br/><span style=\"padding-left: 25px;\"><b>valueset: </b><span>http://cts.nlm.nih.gov/fhir/ValueSet/2.16.840.1.113883.3.464.1003.101.12.1023</span></span></p></div></td></tr><tr style=\"vertical-align: top;\"><td style=\"padding-left: 25px; padding-right: 25px;\"><div xmlns=\"http://www.w3.org/1999/xhtml\"><p style=\"margin-bottom: 5px;\"><b>type: </b><span>Encounter</span></p><p style=\"margin-bottom: 5px;\"><b>code filter:</b><br/><span style=\"padding-left: 25px;\"><b>path: </b><span>type</span></span><br/><span style=\"padding-left: 25px;\"><b>valueset: </b><span>http://cts.nlm.nih.gov/fhir/ValueSet/2.16.840.1.113883.3.464.1003.101.12.1024</span></span></p></div></td></tr><tr style=\"vertical-align: top;\"><td style=\"padding-left: 25px; padding-right: 25px;\"><div xmlns=\"http://www.w3.org/1999/xhtml\"><p style=\"margin-bottom: 5px;\"><b>type: </b><span>Encounter</span></p><p style=\"margin-bottom: 5px;\"><b>code filter:</b><br/><span style=\"padding-left: 25px;\"><b>path: </b><span>type</span></span><br/><span style=\"padding-left: 25px;\"><b>valueset: </b><span>http://cts.nlm.nih.gov/fhir/ValueSet/2.16.840.1.113883.3.464.1003.101.12.1025</span></span></p></div></td></tr><tr style=\"vertical-align: top;\"><td style=\"padding-left: 25px; padding-right: 25px;\"><div xmlns=\"http://www.w3.org/1999/xhtml\"><p style=\"margin-bottom: 5px;\"><b>type: </b><span>Encounter</span></p><p style=\"margin-bottom: 5px;\"><b>code filter:</b><br/><span style=\"padding-left: 25px;\"><b>path: </b><span>type</span></span><br/><span style=\"padding-left: 25px;\"><b>valueset: </b><span>http://cts.nlm.nih.gov/fhir/ValueSet/2.16.840.1.113883.3.464.1003.101.12.1001</span></span></p></div></td></tr><tr style=\"vertical-align: top;\"><td style=\"padding-left: 25px; padding-right: 25px;\"><div xmlns=\"http://www.w3.org/1999/xhtml\"><p style=\"margin-bottom: 5px;\"><b>type: </b><span>Condition</span></p><p style=\"margin-bottom: 5px;\"><b>code filter:</b><br/><span style=\"padding-left: 25px;\"><b>path: </b><span>code</span></span><br/><span style=\"padding-left: 25px;\"><b>valueset: </b><span>http://cts.nlm.nih.gov/fhir/ValueSet/2.16.840.1.113762.1.4.1056.54</span></span></p></div></td></tr><tr style=\"vertical-align: top;\"><td style=\"padding-left: 25px; padding-right: 25px;\"><div xmlns=\"http://www.w3.org/1999/xhtml\"><p style=\"margin-bottom: 5px;\"><b>type: </b><span>Observation</span></p><p style=\"margin-bottom: 5px;\"><b>code filter:</b><br/><span style=\"padding-left: 25px;\"><b>path: </b><span>code</span></span><br/><span style=\"padding-left: 25px;\"><b>valueset: </b><span>http://cts.nlm.nih.gov/fhir/ValueSet/2.16.840.1.113762.1.4.1056.50</span></span></p></div></td></tr><tr style=\"vertical-align: top;\"><td style=\"padding-left: 25px; padding-right: 25px;\"><div xmlns=\"http://www.w3.org/1999/xhtml\"><p style=\"margin-bottom: 5px;\"><b>type: </b><span>Observation</span></p><p style=\"margin-bottom: 5px;\"><b>code filter:</b><br/><span style=\"padding-left: 25px;\"><b>path: </b><span>code</span></span></p></div></td></tr><tr style=\"vertical-align: top;\"><th scope=\"row\"><b>Content: </b></th><td style=\"padding-left: 25px; padding-right: 25px;\"><b>type: </b><span>text/cql</span></td></tr><tr><td colspan=\"2\" style=\"padding-left: 25px; padding-right: 25px;\"><pre><code class=\"language-cql\">library EXM349_FHIR4 version '2.9.000'\n\nusing FHIR version '4.0.0'\n\ninclude FHIRHelpers version '4.0.0' called FHIRHelpers\ninclude MATGlobalCommonFunctions_FHIR4 version '4.0.000' called Global\ninclude SupplementalDataElements_FHIR4 version '1.0.0' called SDE\n\ncodesystem &quot;LOINC&quot;: 'http://loinc.org'\n\nvalueset &quot;Conditions Due To Human Immunodeficiency Virus (HIV)&quot;: 'http://cts.nlm.nih.gov/fhir/ValueSet/2.16.840.1.113762.1.4.1056.54'\nvalueset &quot;Ethnicity&quot;: 'http://cts.nlm.nih.gov/fhir/ValueSet/2.16.840.1.114222.4.11.837'\nvalueset &quot;Human Immunodeficiency Virus (HIV) Laboratory Test Codes (Ab and Ag)&quot;: 'http://cts.nlm.nih.gov/fhir/ValueSet/2.16.840.1.113762.1.4.1056.50'\nvalueset &quot;Office Visit&quot;: 'http://cts.nlm.nih.gov/fhir/ValueSet/2.16.840.1.113883.3.464.1003.101.12.1001'\nvalueset &quot;ONC Administrative Sex&quot;: 'http://cts.nlm.nih.gov/fhir/ValueSet/2.16.840.1.113762.1.4.1'\nvalueset &quot;Payer&quot;: 'http://cts.nlm.nih.gov/fhir/ValueSet/2.16.840.1.114222.4.11.3591'\nvalueset &quot;Preventive Care Services - Established Office Visit, 18 and Up&quot;: 'http://cts.nlm.nih.gov/fhir/ValueSet/2.16.840.1.113883.3.464.1003.101.12.1025'\nvalueset &quot;Preventive Care Services, Initial Office Visit, 0 to 17&quot;: 'http://cts.nlm.nih.gov/fhir/ValueSet/2.16.840.1.113883.3.464.1003.101.12.1022'\nvalueset &quot;Preventive Care Services-Initial Office Visit, 18 and Up&quot;: 'http://cts.nlm.nih.gov/fhir/ValueSet/2.16.840.1.113883.3.464.1003.101.12.1023'\nvalueset &quot;Preventive Care, Established Office Visit, 0 to 17&quot;: 'http://cts.nlm.nih.gov/fhir/ValueSet/2.16.840.1.113883.3.464.1003.101.12.1024'\nvalueset &quot;Race&quot;: 'http://cts.nlm.nih.gov/fhir/ValueSet/2.16.840.1.114222.4.11.836'\n\ncode &quot;HIV 1 and 2 tests - Meaningful Use set&quot;: '75622-1' from &quot;LOINC&quot; display 'HIV 1 and 2 tests - Meaningful Use set'\n\nparameter &quot;Measurement Period&quot; Interval&lt;DateTime&gt;\n\t\tdefault Interval[@2019-01-01T00:00:00.0, @2020-01-01T00:00:00.0)\n\ncontext Patient\n\ndefine &quot;Qualifying Encounters&quot;:\n\t( [Encounter: &quot;Preventive Care Services, Initial Office Visit, 0 to 17&quot;]\n\t\tunion [Encounter: &quot;Preventive Care Services-Initial Office Visit, 18 and Up&quot;]\n\t\tunion [Encounter: &quot;Preventive Care, Established Office Visit, 0 to 17&quot;]\n\t\tunion [Encounter: &quot;Preventive Care Services - Established Office Visit, 18 and Up&quot;]\n\t\tunion [Encounter: &quot;Office Visit&quot;] ) ValidEncounter\n\t\twhere ValidEncounter.status = 'finished'\n\t\tand ValidEncounter.period during &quot;Measurement Period&quot;\n\ndefine &quot;Denominator&quot;:\n\t&quot;Initial Population&quot;\n\ndefine &quot;Denominator Exclusions&quot;:\n\texists ( [Condition: &quot;Conditions Due To Human Immunodeficiency Virus (HIV)&quot;] HIVConditions\n\t\t\twhere FHIRHelpers.ToConcept(HIVConditions.clinicalStatus) ~ Global.&quot;active&quot;\n\t\t\tand FHIRHelpers.ToConcept(HIVConditions.verificationStatus) ~ Global.&quot;confirmed&quot;\n\t\t\tand Global.&quot;Normalize Onset&quot;(HIVConditions.onset) starts before start of &quot;Measurement Period&quot; )\n\ndefine &quot;Numerator&quot;:\n\texists &quot;HIV Test Performed&quot;\n\ndefine &quot;HIV Test Performed&quot;:\n\t( [Observation: &quot;Human Immunodeficiency Virus (HIV) Laboratory Test Codes (Ab and Ag)&quot;]\n\t\tunion [Observation: &quot;HIV 1 and 2 tests - Meaningful Use set&quot;]) HIVTest\n\t\twhere Global.CalendarAgeInYearsAt(FHIRHelpers.ToDate(Patient.birthDate), start of Global.&quot;Normalize Interval&quot;(HIVTest.effective)) between 15 and 65\n\t\t\tand HIVTest.status in {'final', 'amended', 'corrected'}\n\t\t\tand Global.&quot;Normalize Interval&quot;(HIVTest.effective) starts before end of &quot;Measurement Period&quot;\n\ndefine &quot;Initial Population&quot;:\n\tGlobal.CalendarAgeInYearsAt(FHIRHelpers.ToDate(Patient.birthDate), start of &quot;Measurement Period&quot;) between 15 and 65\n\t\tand exists &quot;Qualifying Encounters&quot;\n\ndefine &quot;SDE Ethnicity&quot;:\n\tSDE.&quot;SDE Ethnicity&quot;\ndefine &quot;SDE Payer&quot;:\n\tSDE.&quot;SDE Payer&quot;\ndefine &quot;SDE Race&quot;:\n\tSDE.&quot;SDE Race&quot;\ndefine &quot;SDE Sex&quot;:\n\tSDE.&quot;SDE Sex&quot;\n</code></pre>\n                    \n                    \n                </td>\n            </tr>\n        \n    </table>\n</div>"
        },
        "version": "2.9.000",
        "name": "EXM349_FHIR4",
        "status": "active",
        "experimental": true,
        "type": {
          "coding": [
            {
              "system": "http://hl7.org/fhir/codesystem-library-type.html",
              "code": "logic-library"
            }
          ]
        },
        "relatedArtifact": [
          {
            "type": "depends-on",
            "resource": "Library/library-FHIRHelpers-4.0.0"
          },
          {
            "type": "depends-on",
            "resource": "Library/library-MATGlobalCommonFunctions-FHIR4-4.0.000"
          },
          {
            "type": "depends-on",
            "resource": "Library/library-SupplementalDataElements-FHIR4-1.0.0"
          }
        ],
        "dataRequirement": [
          {
            "type": "Encounter",
            "codeFilter": [
              {
                "path": "type",
                "valueSet": "http://cts.nlm.nih.gov/fhir/ValueSet/2.16.840.1.113883.3.464.1003.101.12.1022"
              }
            ]
          },
          {
            "type": "Encounter",
            "codeFilter": [
              {
                "path": "type",
                "valueSet": "http://cts.nlm.nih.gov/fhir/ValueSet/2.16.840.1.113883.3.464.1003.101.12.1023"
              }
            ]
          },
          {
            "type": "Encounter",
            "codeFilter": [
              {
                "path": "type",
                "valueSet": "http://cts.nlm.nih.gov/fhir/ValueSet/2.16.840.1.113883.3.464.1003.101.12.1024"
              }
            ]
          },
          {
            "type": "Encounter",
            "codeFilter": [
              {
                "path": "type",
                "valueSet": "http://cts.nlm.nih.gov/fhir/ValueSet/2.16.840.1.113883.3.464.1003.101.12.1025"
              }
            ]
          },
          {
            "type": "Encounter",
            "codeFilter": [
              {
                "path": "type",
                "valueSet": "http://cts.nlm.nih.gov/fhir/ValueSet/2.16.840.1.113883.3.464.1003.101.12.1001"
              }
            ]
          },
          {
            "type": "Condition",
            "codeFilter": [
              {
                "path": "code",
                "valueSet": "http://cts.nlm.nih.gov/fhir/ValueSet/2.16.840.1.113762.1.4.1056.54"
              }
            ]
          },
          {
            "type": "Observation",
            "codeFilter": [
              {
                "path": "code",
                "valueSet": "http://cts.nlm.nih.gov/fhir/ValueSet/2.16.840.1.113762.1.4.1056.50"
              }
            ]
          },
          {
            "type": "Observation",
            "codeFilter": [
              {
                "path": "code"
              }
            ]
          }
        ],
        "content": [
          {
            "contentType": "application/elm+xml",
            "data": ""
          },
          {
            "contentType": "text/cql",
            "data": ""
          },
          {
            "contentType": "application/elm+xml",
            "data": ""
          },
          {
            "contentType": "text/cql",
            "data": ""
          }
        ]
      },
      "request": {
        "method": "PUT",
        "url": "Library/library-EXM349-FHIR4-2.9.000"
      }
    },
    {
      "resource": {
        "resourceType": "Condition",
        "id": "numer-EXM349-FHIR4-1",
        "meta": {
          "profile": [
            "http://hl7.org/fhir/us/core/StructureDefinition/us-core-condition"
          ]
        },
        "verificationStatus": {
          "coding": [
            {
              "system": "http://terminology.hl7.org/CodeSystem/condition-ver-status",
              "code": "confirmed",
              "display": "Confirmed"
            }
          ]
        },
        "category": [
          {
            "coding": [
              {
                "system": "http://terminology.hl7.org/CodeSystem/condition-category",
                "code": "encounter-diagnosis",
                "display": "Encounter Diagnosis"
              }
            ]
          }
        ],
        "code": {
          "coding": [
            {
              "system": "http://snomed.info/sct",
              "code": "116288000",
              "display": "Paralytic stroke (disorder)"
            }
          ]
        },
        "subject": {
          "reference": "Patient/numer-EXM349-FHIR4"
        }
      },
      "request": {
        "method": "PUT",
        "url": "Condition/numer-EXM349-FHIR4-1"
      }
    },
    {
      "resource": {
        "resourceType": "Encounter",
        "id": "denom-EXM349-FHIR4-2",
        "meta": {
          "profile": [
            "http://hl7.org/fhir/us/core/StructureDefinition/us-core-encounter"
          ]
        },
        "status": "finished",
        "class": {
          "system": "http://terminology.hl7.org/CodeSystem/v3-ActCode",
          "code": "AMB",
          "display": "ambulatory"
        },
        "type": [
          {
            "coding": [
              {
                "system": "http://www.ama-assn.org/go/cpt",
                "code": "99385",
                "display": "Initial comprehensive preventive medicine evaluation and management of an individual including an age and gender appropriate history, examination, counseling/anticipatory guidance/risk factor reduction interventions, and the ordering of laboratory/diagnostic procedures, new patient; 18-39 years"
              }
            ]
          }
        ],
        "subject": {
          "reference": "Patient/denom-EXM349-FHIR4"
        },
        "period": {
          "start": "2019-05-30T00:00:00-00:00",
          "end": "2019-05-31T00:00:00-00:00"
        }
      },
      "request": {
        "method": "PUT",
        "url": "Encounter/denom-EXM349-FHIR4-2"
      }
    },
    {
      "resource": {
        "resourceType": "Encounter",
        "id": "denom_excl-EXM349-FHIR4-2",
        "meta": {
          "profile": [
            "http://hl7.org/fhir/us/core/StructureDefinition/us-core-encounter"
          ]
        },
        "status": "finished",
        "class": {
          "system": "http://terminology.hl7.org/CodeSystem/v3-ActCode",
          "code": "AMB",
          "display": "ambulatory"
        },
        "type": [
          {
            "coding": [
              {
                "system": "http://www.ama-assn.org/go/cpt",
                "code": "99201",
                "display": "Office or other outpatient visit for the evaluation and management of a new patient, which requires these 3 key components: A problem focused history; A problem focused examination; Straightforward medical decision making. Counseling and/or coordination of care with other physicians, other qualified health care professionals, or agencies are provided consistent with the nature of the problem(s) and the patient's and/or family's needs. Usually, the presenting problem(s) are self limited or minor. Typically, 10 minutes are spent face-to-face with the patient and/or family."
              }
            ]
          }
        ],
        "subject": {
          "reference": "Patient/denom_excl-EXM349-FHIR4"
        },
        "period": {
          "start": "2019-05-30T00:00:00.0",
          "end": "2019-05-31T00:00:00.0"
        }
      },
      "request": {
        "method": "PUT",
        "url": "Encounter/denom_excl-EXM349-FHIR4-2"
      }
    },
    {
      "resource": {
        "resourceType": "Observation",
        "id": "denom_excl-EXM349-FHIR4-3",
        "meta": {
          "profile": [
            "http://hl7.org/fhir/observation"
          ]
        },
        "status": "final",
        "code": {
          "coding": [
            {
              "system": "http://loinc.org",
              "code": "11082-5",
              "display": "HIV 2 p68 Ab [Presence] in Serum by Immunoblot"
            }
          ]
        },
        "subject": {
          "reference": "Patient/denom_excl-EXM349-FHIR4"
        },
        "effectiveDateTime": "2019-11-01T00:00:00",
        "valueBoolean": true
      },
      "request": {
        "method": "PUT",
        "url": "Observation/denom_excl-EXM349-FHIR4-3"
      }
    },
    {
      "resource": {
        "resourceType": "Patient",
        "id": "denom_excl-EXM349-FHIR4",
        "meta": {
          "profile": [
            "http://hl7.org/fhir/us/core/StructureDefinition/us-core-patient"
          ]
        },
        "extension": [
          {
            "url": "http://hl7.org/fhir/us/core/StructureDefinition/us-core-race",
            "extension": [
              {
                "url": "ombCategory",
                "valueCoding": {
                  "system": "urn:oid:2.16.840.1.113883.6.238",
                  "code": "2028-9",
                  "display": "Asian"
                }
              }
            ]
          },
          {
            "url": "http://hl7.org/fhir/us/core/StructureDefinition/us-core-ethnicity",
            "extension": [
              {
                "url": "ombCategory",
                "valueCoding": {
                  "system": "urn:oid:2.16.840.1.113883.6.238",
                  "code": "2135-2",
                  "display": "Hispanic or Latino"
                }
              }
            ]
          }
        ],
        "identifier": [
          {
            "use": "usual",
            "type": {
              "coding": [
                {
                  "system": "http://terminology.hl7.org/CodeSystem/v2-0203",
                  "code": "MR",
                  "display": "Medical Record Number"
                }
              ]
            },
            "system": "http://hospital.smarthealthit.org",
            "value": "999999992"
          }
        ],
        "name": [
          {
            "family": "Blitz",
            "given": [
              "Don"
            ]
          }
        ],
        "gender": "male",
        "birthDate": "1965-01-01"
      },
      "request": {
        "method": "PUT",
        "url": "Patient/denom_excl-EXM349-FHIR4"
      }
    },
    {
      "resource": {
        "resourceType": "ValueSet",
        "id": "2.16.840.1.113883.3.464.1003.101.12.1025",
        "url": "http://cts.nlm.nih.gov/fhir/ValueSet/2.16.840.1.113883.3.464.1003.101.12.1025",
        "identifier": [
          {
            "system": "urn:ietf:rfc:3986",
            "value": "2.16.840.1.113883.3.464.1003.101.12.1025"
          }
        ],
        "version": "20170504",
        "name": "PreventiveCareServices-EstablishedOfficeVisit,18andUp",
        "title": "Preventive Care Services - Established Office Visit, 18 and Up",
        "status": "active",
        "publisher": "NLM",
        "compose": {
          "include": [
            {
              "system": "http://www.ama-assn.org/go/cpt",
              "version": "2018",
              "concept": [
                {
                  "code": "99395",
                  "display": "Periodic comprehensive preventive medicine reevaluation and management of an individual including an age and gender appropriate history, examination, counseling/anticipatory guidance/risk factor reduction interventions, and the ordering of laboratory/diagnostic procedures, established patient; 18-39 years"
                },
                {
                  "code": "99396",
                  "display": "Periodic comprehensive preventive medicine reevaluation and management of an individual including an age and gender appropriate history, examination, counseling/anticipatory guidance/risk factor reduction interventions, and the ordering of laboratory/diagnostic procedures, established patient; 40-64 years"
                },
                {
                  "code": "99397",
                  "display": "Periodic comprehensive preventive medicine reevaluation and management of an individual including an age and gender appropriate history, examination, counseling/anticipatory guidance/risk factor reduction interventions, and the ordering of laboratory/diagnostic procedures, established patient; 65 years and older"
                }
              ]
            }
          ]
        }
      },
      "request": {
        "method": "PUT",
        "url": "ValueSet/2.16.840.1.113883.3.464.1003.101.12.1025"
      }
    },
    {
      "resource": {
        "resourceType": "Library",
        "id": "library-SupplementalDataElements-FHIR4-1.0.0",
        "text": {
          "status": "generated",
          "div": "<div xmlns=\"http://www.w3.org/1999/xhtml\"><table class=\"grid dict\"><tr><th scope=\"row\"><b>Id: </b></th><td style=\"padding-left: 25px; padding-right: 25px;\">library-SupplementalDataElements-FHIR4-1.0.0</td></tr><tr><th scope=\"row\"><b>Type: </b></th><td style=\"padding-right: 25px;\"> logic-library </td></tr><tr><th scope=\"row\"><b>Version: </b></th><td style=\"padding-left: 25px; padding-right: 25px;\">1.0.0</td></tr><tr><th scope=\"row\"><b>Status: </b></th><td style=\"padding-left: 25px; padding-right: 25px;\">active</td></tr><tr style=\"vertical-align: top;\"><th rowspan=\"1\" scope=\"row\"><b>Related: </b></th><td style=\"padding-left: 25px; padding-right: 25px;\"><p style=\"margin-bottom: 5px;\"><b>type: </b><span>depends-on</span></p><p style=\"margin-bottom: 5px;\"><b>Resource: </b><br/><span>Library/library-FHIRHelpers-4.0.0</span></p></td></tr><tr style=\"vertical-align: top;\"><th rowspan=\"1\" scope=\"row\"><b>Data Requirements: </b></th><td style=\"padding-left: 25px; padding-right: 25px;\"><div xmlns=\"http://www.w3.org/1999/xhtml\"><p style=\"margin-bottom: 5px;\"><b>type: </b><span>Coverage</span></p><p style=\"margin-bottom: 5px;\"><b>code filter:</b><br/><span style=\"padding-left: 25px;\"><b>path: </b><span>type</span></span><br/><span style=\"padding-left: 25px;\"><b>valueset: </b><span>http://cts.nlm.nih.gov/fhir/ValueSet/2.16.840.1.114222.4.11.3591</span></span></p></div></td></tr><tr style=\"vertical-align: top;\"><th scope=\"row\"><b>Content: </b></th><td style=\"padding-left: 25px; padding-right: 25px;\"><b>type: </b><span>text/cql</span></td></tr><tr><td colspan=\"2\" style=\"padding-left: 25px; padding-right: 25px;\"><pre><code class=\"language-cql\">library SupplementalDataElements_FHIR4 version '1.0.0'\n\nusing FHIR version '4.0.0'\n\ninclude FHIRHelpers version '4.0.0' called FHIRHelpers\n\nvalueset &quot;ONC Administrative Sex&quot;: 'http://cts.nlm.nih.gov/fhir/ValueSet/2.16.840.1.113762.1.4.1'\nvalueset &quot;Race&quot;: 'http://cts.nlm.nih.gov/fhir/ValueSet/2.16.840.1.114222.4.11.836'\nvalueset &quot;Ethnicity&quot;: 'http://cts.nlm.nih.gov/fhir/ValueSet/2.16.840.1.114222.4.11.837'\nvalueset &quot;Payer&quot;: 'http://cts.nlm.nih.gov/fhir/ValueSet/2.16.840.1.114222.4.11.3591'\n\ncontext Patient\n\ndefine &quot;SDE Ethnicity&quot;:\n  (flatten (\n    Patient.extension Extension\n      where Extension.url = 'http://hl7.org/fhir/us/core/StructureDefinition/us-core-ethnicity'\n        return Extension.extension\n  )) E\n    where E.url = 'ombCategory'\n      or E.url = 'detailed'\n    return E.value as Coding\n    \ndefine &quot;SDE Payer&quot;:\n    [Coverage: type in &quot;Payer&quot;] Payer\n      return {\n        code: Payer.type,\n        period: Payer.period\n      }\n      \ndefine &quot;SDE Race&quot;:\n  (flatten (\n    Patient.extension Extension\n      where Extension.url = 'http://hl7.org/fhir/us/core/StructureDefinition/us-core-race'\n        return Extension.extension\n  )) E\n    where E.url = 'ombCategory'\n      or E.url = 'detailed'\n    return E.value as Coding\n\ndefine &quot;SDE Sex&quot;:\n  case \n    when Patient.gender = 'male' then Code { code: 'M', system: 'http://hl7.org/fhir/v3/AdministrativeGender', display: 'Male' }\n    when Patient.gender = 'female' then Code { code: 'F', system: 'http://hl7.org/fhir/v3/AdministrativeGender', display: 'Female' }\n    else null\n  end\n\n</code></pre>\n                    \n                    \n                </td>\n            </tr>\n        \n    </table>\n</div>"
        },
        "version": "1.0.0",
        "name": "SupplementalDataElements_FHIR4",
        "status": "active",
        "experimental": true,
        "type": {
          "coding": [
            {
              "system": "http://hl7.org/fhir/codesystem-library-type.html",
              "code": "logic-library"
            }
          ]
        },
        "relatedArtifact": [
          {
            "type": "depends-on",
            "resource": "Library/library-FHIRHelpers-4.0.0"
          }
        ],
        "dataRequirement": [
          {
            "type": "Coverage",
            "codeFilter": [
              {
                "path": "type",
                "valueSet": "http://cts.nlm.nih.gov/fhir/ValueSet/2.16.840.1.114222.4.11.3591"
              }
            ]
          }
        ],
        "content": [
          {
            "contentType": "application/elm+xml",
            "data": ""
          },
          {
            "contentType": "text/cql",
            "data": ""
          },
          {
            "contentType": "application/elm+xml",
            "data": ""
          },
          {
            "contentType": "text/cql",
            "data": ""
          }
        ]
      },
      "request": {
        "method": "PUT",
        "url": "Library/library-SupplementalDataElements-FHIR4-1.0.0"
      }
    },
    {
      "resource": {
        "resourceType": "ValueSet",
        "id": "2.16.840.1.113883.3.464.1003.101.12.1001",
        "url": "http://cts.nlm.nih.gov/fhir/ValueSet/2.16.840.1.113883.3.464.1003.101.12.1001",
        "identifier": [
          {
            "system": "urn:ietf:rfc:3986",
            "value": "2.16.840.1.113883.3.464.1003.101.12.1001"
          }
        ],
        "version": "20180310",
        "name": "OfficeVisit",
        "title": "Office Visit",
        "status": "active",
        "publisher": "NLM",
        "compose": {
          "include": [
            {
              "system": "http://www.ama-assn.org/go/cpt",
              "version": "2018",
              "concept": [
                {
                  "code": "99201",
                  "display": "Office or other outpatient visit for the evaluation and management of a new patient, which requires these 3 key components: A problem focused history; A problem focused examination; Straightforward medical decision making. Counseling and/or coordination of care with other physicians, other qualified health care professionals, or agencies are provided consistent with the nature of the problem(s) and the patient's and/or family's needs. Usually, the presenting problem(s) are self limited or minor. Typically, 10 minutes are spent face-to-face with the patient and/or family."
                },
                {
                  "code": "99202",
                  "display": "Office or other outpatient visit for the evaluation and management of a new patient, which requires these 3 key components: An expanded problem focused history; An expanded problem focused examination; Straightforward medical decision making. Counseling and/or coordination of care with other physicians, other qualified health care professionals, or agencies are provided consistent with the nature of the problem(s) and the patient's and/or family's needs. Usually, the presenting problem(s) are of low to moderate severity. Typically, 20 minutes are spent face-to-face with the patient and/or family."
                },
                {
                  "code": "99203",
                  "display": "Office or other outpatient visit for the evaluation and management of a new patient, which requires these 3 key components: A detailed history; A detailed examination; Medical decision making of low complexity. Counseling and/or coordination of care with other physicians, other qualified health care professionals, or agencies are provided consistent with the nature of the problem(s) and the patient's and/or family's needs. Usually, the presenting problem(s) are of moderate severity. Typically, 30 minutes are spent face-to-face with the patient and/or family."
                },
                {
                  "code": "99204",
                  "display": "Office or other outpatient visit for the evaluation and management of a new patient, which requires these 3 key components: A comprehensive history; A comprehensive examination; Medical decision making of moderate complexity. Counseling and/or coordination of care with other physicians, other qualified health care professionals, or agencies are provided consistent with the nature of the problem(s) and the patient's and/or family's needs. Usually, the presenting problem(s) are of moderate to high severity. Typically, 45 minutes are spent face-to-face with the patient and/or family."
                },
                {
                  "code": "99205",
                  "display": "Office or other outpatient visit for the evaluation and management of a new patient, which requires these 3 key components: A comprehensive history; A comprehensive examination; Medical decision making of high complexity. Counseling and/or coordination of care with other physicians, other qualified health care professionals, or agencies are provided consistent with the nature of the problem(s) and the patient's and/or family's needs. Usually, the presenting problem(s) are of moderate to high severity. Typically, 60 minutes are spent face-to-face with the patient and/or family."
                },
                {
                  "code": "99212",
                  "display": "Office or other outpatient visit for the evaluation and management of an established patient, which requires at least 2 of these 3 key components: A problem focused history; A problem focused examination; Straightforward medical decision making. Counseling and/or coordination of care with other physicians, other qualified health care professionals, or agencies are provided consistent with the nature of the problem(s) and the patient's and/or family's needs. Usually, the presenting problem(s) are self limited or minor. Typically, 10 minutes are spent face-to-face with the patient and/or family."
                },
                {
                  "code": "99213",
                  "display": "Office or other outpatient visit for the evaluation and management of an established patient, which requires at least 2 of these 3 key components: An expanded problem focused history; An expanded problem focused examination; Medical decision making of low complexity. Counseling and coordination of care with other physicians, other qualified health care professionals, or agencies are provided consistent with the nature of the problem(s) and the patient's and/or family's needs. Usually, the presenting problem(s) are of low to moderate severity. Typically, 15 minutes are spent face-to-face with the patient and/or family."
                },
                {
                  "code": "99214",
                  "display": "Office or other outpatient visit for the evaluation and management of an established patient, which requires at least 2 of these 3 key components: A detailed history; A detailed examination; Medical decision making of moderate complexity. Counseling and/or coordination of care with other physicians, other qualified health care professionals, or agencies are provided consistent with the nature of the problem(s) and the patient's and/or family's needs. Usually, the presenting problem(s) are of moderate to high severity. Typically, 25 minutes are spent face-to-face with the patient and/or family."
                },
                {
                  "code": "99215",
                  "display": "Office or other outpatient visit for the evaluation and management of an established patient, which requires at least 2 of these 3 key components: A comprehensive history; A comprehensive examination; Medical decision making of high complexity. Counseling and/or coordination of care with other physicians, other qualified health care professionals, or agencies are provided consistent with the nature of the problem(s) and the patient's and/or family's needs. Usually, the presenting problem(s) are of moderate to high severity. Typically, 40 minutes are spent face-to-face with the patient and/or family."
                }
              ]
            },
            {
              "system": "http://snomed.info/sct",
              "version": "2018-03",
              "concept": [
                {
                  "code": "185463005",
                  "display": "Visit out of hours (procedure)"
                },
                {
                  "code": "185464004",
                  "display": "Out of hours visit - not night visit (procedure)"
                },
                {
                  "code": "185465003",
                  "display": "Weekend visit (procedure)"
                },
                {
                  "code": "30346009",
                  "display": "Evaluation and management of established outpatient in office or other outpatient facility (procedure)"
                },
                {
                  "code": "3391000175108",
                  "display": "Office visit for pediatric care and assessment (procedure)"
                },
                {
                  "code": "37894004",
                  "display": "Evaluation and management of new outpatient in office or other outpatient facility (procedure)"
                },
                {
                  "code": "439740005",
                  "display": "Postoperative follow-up visit (procedure)"
                }
              ]
            }
          ]
        }
      },
      "request": {
        "method": "PUT",
        "url": "ValueSet/2.16.840.1.113883.3.464.1003.101.12.1001"
      }
    },
    {
      "resource": {
        "resourceType": "ValueSet",
        "id": "2.16.840.1.113883.3.464.1003.101.12.1023",
        "url": "http://cts.nlm.nih.gov/fhir/ValueSet/2.16.840.1.113883.3.464.1003.101.12.1023",
        "identifier": [
          {
            "system": "urn:ietf:rfc:3986",
            "value": "2.16.840.1.113883.3.464.1003.101.12.1023"
          }
        ],
        "version": "20170504",
        "name": "PreventiveCareServices-InitialOfficeVisit,18andUp",
        "title": "Preventive Care Services-Initial Office Visit, 18 and Up",
        "status": "active",
        "publisher": "NLM",
        "compose": {
          "include": [
            {
              "system": "http://www.ama-assn.org/go/cpt",
              "version": "2018",
              "concept": [
                {
                  "code": "99385",
                  "display": "Initial comprehensive preventive medicine evaluation and management of an individual including an age and gender appropriate history, examination, counseling/anticipatory guidance/risk factor reduction interventions, and the ordering of laboratory/diagnostic procedures, new patient; 18-39 years"
                },
                {
                  "code": "99386",
                  "display": "Initial comprehensive preventive medicine evaluation and management of an individual including an age and gender appropriate history, examination, counseling/anticipatory guidance/risk factor reduction interventions, and the ordering of laboratory/diagnostic procedures, new patient; 40-64 years"
                },
                {
                  "code": "99387",
                  "display": "Initial comprehensive preventive medicine evaluation and management of an individual including an age and gender appropriate history, examination, counseling/anticipatory guidance/risk factor reduction interventions, and the ordering of laboratory/diagnostic procedures, new patient; 65 years and older"
                }
              ]
            }
          ]
        }
      },
      "request": {
        "method": "PUT",
        "url": "ValueSet/2.16.840.1.113883.3.464.1003.101.12.1023"
      }
    },
    {
      "resource": {
        "resourceType": "ValueSet",
        "id": "2.16.840.1.113883.3.464.1003.101.12.1024",
        "url": "http://cts.nlm.nih.gov/fhir/ValueSet/2.16.840.1.113883.3.464.1003.101.12.1024",
        "title": "Preventive Care, Established Office Visit, 0 to 17",
        "status": "active",
        "publisher": "National Committee for Quality Assurance",
        "compose": {
          "include": [
            {
              "system": "http://www.ama-assn.org/go/cpt",
              "version": "2020",
              "concept": [
                {
                  "code": "99391",
                  "display": "Periodic comprehensive preventive medicine reevaluation and management of an individual including an age and gender appropriate history, examination, counseling/anticipatory guidance/risk factor reduction interventions, and the ordering of laboratory/diagnostic procedures, established patient; infant (age younger than 1 year)"
                },
                {
                  "code": "99392",
                  "display": "Periodic comprehensive preventive medicine reevaluation and management of an individual including an age and gender appropriate history, examination, counseling/anticipatory guidance/risk factor reduction interventions, and the ordering of laboratory/diagnostic procedures, established patient; early childhood (age 1 through 4 years)"
                },
                {
                  "code": "99393",
                  "display": "Periodic comprehensive preventive medicine reevaluation and management of an individual including an age and gender appropriate history, examination, counseling/anticipatory guidance/risk factor reduction interventions, and the ordering of laboratory/diagnostic procedures, established patient; late childhood (age 5 through 11 years)"
                },
                {
                  "code": "99394",
                  "display": "Periodic comprehensive preventive medicine reevaluation and management of an individual including an age and gender appropriate history, examination, counseling/anticipatory guidance/risk factor reduction interventions, and the ordering of laboratory/diagnostic procedures, established patient; adolescent (age 12 through 17 years)"
                }
              ]
            }
          ]
        }
      },
      "request": {
        "method": "PUT",
        "url": "ValueSet/2.16.840.1.113883.3.464.1003.101.12.1024"
      }
    },
    {
      "resource": {
        "resourceType": "ValueSet",
        "id": "2.16.840.1.113762.1.4.1056.54",
        "url": "http://cts.nlm.nih.gov/fhir/ValueSet/2.16.840.1.113762.1.4.1056.54",
        "title": "Indicators of Human Immunodeficiency Virus (HIV)",
        "status": "active",
        "publisher": "Mathematica",
        "compose": {
          "include": [
            {
              "system": "http://hl7.org/fhir/sid/icd-9-cm",
              "version": "2013",
              "concept": [
                {
                  "code": "042",
                  "display": "Human immunodeficiency virus [HIV] disease"
                },
                {
                  "code": "079.53",
                  "display": "Human immunodeficiency virus, type 2 [HIV-2]"
                },
                {
                  "code": "176.9",
                  "display": "Kaposi's sarcoma, unspecified site"
                },
                {
                  "code": "348.3",
                  "display": "Encephalopathy, not elsewhere classified"
                },
                {
                  "code": "647.2",
                  "display": "Other venereal diseases in the mother complicating pregnancy, childbirth, or the puerperium"
                },
                {
                  "code": "647.60",
                  "display": "Other viral diseases in the mother, unspecified as to episode of care or not applicable"
                },
                {
                  "code": "647.64",
                  "display": "Other viral diseases in the mother, postpartum condition or complication"
                },
                {
                  "code": "795.71",
                  "display": "Nonspecific serologic evidence of human immunodeficiency virus [HIV]"
                },
                {
                  "code": "V08",
                  "display": "Asymptomatic human immunodeficiency virus [HIV] infection status"
                }
              ]
            },
            {
              "system": "http://snomed.info/sct",
              "version": "2020-03",
              "concept": [
                {
                  "code": "10755671000119100",
                  "display": "Human immunodeficiency virus in mother complicating childbirth (disorder)"
                },
                {
                  "code": "111880001",
                  "display": "Acute human immunodeficiency virus infection (disorder)"
                },
                {
                  "code": "186706006",
                  "display": "Human immunodeficiency virus infection constitutional disease (disorder)"
                },
                {
                  "code": "186707002",
                  "display": "Human immunodeficiency virus infection with neurological disease (disorder)"
                },
                {
                  "code": "186708007",
                  "display": "Human immunodeficiency virus infection with secondary clinical infectious disease (disorder)"
                },
                {
                  "code": "230180003",
                  "display": "Human immunodeficiency virus leukoencephalopathy (disorder)"
                },
                {
                  "code": "230598008",
                  "display": "Neuropathy caused by human immunodeficiency virus (disorder)"
                },
                {
                  "code": "235009000",
                  "display": "Human immunodeficiency virus-associated periodontitis (disorder)"
                },
                {
                  "code": "235726002",
                  "display": "Human immunodeficiency virus enteropathy (disorder)"
                },
                {
                  "code": "236406007",
                  "display": "Acquired immune deficiency syndrome-related nephropathy (disorder)"
                },
                {
                  "code": "240103002",
                  "display": "Human immunodeficiency virus myopathy (disorder)"
                },
                {
                  "code": "276665006",
                  "display": "Congenital acquired immune deficiency syndrome (disorder)"
                },
                {
                  "code": "281388009",
                  "display": "Human immunodeficiency virus-related sclerosing cholangitis (disorder)"
                },
                {
                  "code": "315019000",
                  "display": "Human immunodeficiency virus infection with aseptic meningitis (disorder)"
                },
                {
                  "code": "397763006",
                  "display": "Human immunodeficiency virus encephalopathy (disorder)"
                },
                {
                  "code": "398329009",
                  "display": "Human immunodeficiency virus encephalitis (disorder)"
                },
                {
                  "code": "402901009",
                  "display": "Oral hairy leukoplakia associated with human immunodeficiency virus disease (disorder)"
                },
                {
                  "code": "405631006",
                  "display": "Pediatric human immunodeficiency virus infection (disorder)"
                },
                {
                  "code": "40780007",
                  "display": "Human immunodeficiency virus I infection (disorder)"
                },
                {
                  "code": "414376003",
                  "display": "Hairy leukoplakia of tongue associated with human immunodeficiency virus disease (disorder)"
                },
                {
                  "code": "414604009",
                  "display": "Leukoplakia of tongue associated with human immunodeficiency virus disease (disorder)"
                },
                {
                  "code": "420721002",
                  "display": "Acquired immunodeficiency syndrome-associated disorder (disorder)"
                },
                {
                  "code": "442134007",
                  "display": "Hepatitis B associated with Human immunodeficiency virus infection (disorder)"
                },
                {
                  "code": "442537007",
                  "display": "Non-Hodgkin lymphoma associated with Human immunodeficiency virus infection (disorder)"
                },
                {
                  "code": "48794007",
                  "display": "Human immunodeficiency virus infection with infectious mononucleosis-like syndrome (disorder)"
                },
                {
                  "code": "52079000",
                  "display": "Congenital human immunodeficiency virus infection (disorder)"
                },
                {
                  "code": "62479008",
                  "display": "Acquired immune deficiency syndrome (disorder)"
                },
                {
                  "code": "713260006",
                  "display": "Subacute adenoviral encephalitis co-occurrent with human immunodeficiency virus infection (disorder)"
                },
                {
                  "code": "713275003",
                  "display": "Splenomegaly co-occurrent with human immunodeficiency virus infection (disorder)"
                },
                {
                  "code": "713278001",
                  "display": "Neuralgia co-occurrent with human immunodeficiency virus infection (disorder)"
                },
                {
                  "code": "713297001",
                  "display": "Candidiasis of esophagus co-occurrent with human immunodeficiency virus infection (disorder)"
                },
                {
                  "code": "713298006",
                  "display": "Heart disease co-occurrent with human immunodeficiency virus infection (disorder)"
                },
                {
                  "code": "713299003",
                  "display": "Disorder of eye proper co-occurrent with human immunodeficiency virus infection (disorder)"
                },
                {
                  "code": "713300006",
                  "display": "Disorder of gastrointestinal tract co-occurrent with human immunodeficiency virus infection (disorder)"
                },
                {
                  "code": "713316008",
                  "display": "Eruption of skin co-occurrent with human immunodeficiency virus infection (disorder)"
                },
                {
                  "code": "713318009",
                  "display": "Myocarditis co-occurrent with human immunodeficiency virus infection (disorder)"
                },
                {
                  "code": "713320007",
                  "display": "Radiculitis co-occurrent with human immunodeficiency virus infection (disorder)"
                },
                {
                  "code": "713325002",
                  "display": "Primary cerebral lymphoma co-occurrent with human immunodeficiency virus infection (disorder)"
                },
                {
                  "code": "713339002",
                  "display": "Infection caused by Strongyloides co-occurrent with human immunodeficiency virus infection (disorder)"
                },
                {
                  "code": "713340000",
                  "display": "Disorder of skin co-occurrent with human immunodeficiency virus infection (disorder)"
                },
                {
                  "code": "713341001",
                  "display": "Myelitis co-occurrent with human immunodeficiency virus infection (disorder)"
                },
                {
                  "code": "713342008",
                  "display": "Infection caused by Salmonella co-occurrent with human immunodeficiency virus infection (disorder)"
                },
                {
                  "code": "713349004",
                  "display": "Anemia co-occurrent with human immunodeficiency virus infection (disorder)"
                },
                {
                  "code": "713444005",
                  "display": "Hemophagocytic syndrome co-occurrent with human immunodeficiency virus infection (disorder)"
                },
                {
                  "code": "713445006",
                  "display": "Disseminated infection caused by Strongyloides co-occurrent with human immunodeficiency virus infection (disorder)"
                },
                {
                  "code": "713446007",
                  "display": "Chronic infection caused by herpes simplex virus co-occurrent with human immunodeficiency virus infection (disorder)"
                },
                {
                  "code": "713483007",
                  "display": "Reticulosarcoma co-occurrent with human immunodeficiency virus infection (disorder)"
                },
                {
                  "code": "713484001",
                  "display": "Disorder of respiratory system co-occurrent with human immunodeficiency virus infection (disorder)"
                },
                {
                  "code": "713487008",
                  "display": "Progressive multifocal leukoencephalopathy co-occurrent with human immunodeficiency virus infection (disorder)"
                },
                {
                  "code": "713488003",
                  "display": "Presenile dementia co-occurrent with human immunodeficiency virus infection (disorder)"
                },
                {
                  "code": "713489006",
                  "display": "Polyneuropathy co-occurrent with human immunodeficiency virus infection (disorder)"
                },
                {
                  "code": "713490002",
                  "display": "Infection caused by Pneumocystis co-occurrent with human immunodeficiency virus infection (disorder)"
                },
                {
                  "code": "713491003",
                  "display": "Organic brain syndrome co-occurrent with human immunodeficiency virus infection (disorder)"
                },
                {
                  "code": "713497004",
                  "display": "Candidiasis of mouth co-occurrent with human immunodeficiency virus infection (disorder)"
                },
                {
                  "code": "713503007",
                  "display": "Disorder of spinal cord co-occurrent with human immunodeficiency virus infection (disorder)"
                },
                {
                  "code": "713504001",
                  "display": "Disorder of kidney co-occurrent with human immunodeficiency virus infection (disorder)"
                },
                {
                  "code": "713505000",
                  "display": "Gastrointestinal malabsorption syndrome co-occurrent with human immunodeficiency virus infection (disorder)"
                },
                {
                  "code": "713506004",
                  "display": "Neuritis co-occurrent with human immunodeficiency virus infection (disorder)"
                },
                {
                  "code": "713507008",
                  "display": "Lymphadenopathy co-occurrent with human immunodeficiency virus infection (disorder)"
                },
                {
                  "code": "713508003",
                  "display": "Aplastic anemia co-occurrent with human immunodeficiency virus infection (disorder)"
                },
                {
                  "code": "713510001",
                  "display": "Enlargement of liver co-occurrent with human immunodeficiency virus infection (disorder)"
                },
                {
                  "code": "713511002",
                  "display": "Acute endocarditis co-occurrent with human immunodeficiency virus infection (disorder)"
                },
                {
                  "code": "713523008",
                  "display": "Cardiomyopathy co-occurrent with human immunodeficiency virus infection (disorder)"
                },
                {
                  "code": "713526000",
                  "display": "Recurrent bacterial pneumonia co-occurrent with human immunodeficiency virus infection (disorder)"
                },
                {
                  "code": "713527009",
                  "display": "Disorder of peripheral nervous system co-occurrent with human immunodeficiency virus infection (disorder)"
                },
                {
                  "code": "713530002",
                  "display": "Agranulocytosis co-occurrent with human immunodeficiency virus infection (disorder)"
                },
                {
                  "code": "713531003",
                  "display": "Visual impairment co-occurrent with human immunodeficiency virus infection (disorder)"
                },
                {
                  "code": "713532005",
                  "display": "Infective arthritis co-occurrent with human immunodeficiency virus infection (disorder)"
                },
                {
                  "code": "713533000",
                  "display": "Acquired hemolytic anemia co-occurrent with human immunodeficiency virus infection (disorder)"
                },
                {
                  "code": "713543002",
                  "display": "Demyelinating disease of central nervous system co-occurrent with human immunodeficiency virus infection (disorder)"
                },
                {
                  "code": "713544008",
                  "display": "Bacterial pneumonia co-occurrent with human immunodeficiency virus infection (disorder)"
                },
                {
                  "code": "713545009",
                  "display": "Infection caused by Nocardia co-occurrent with human immunodeficiency virus infection (disorder)"
                },
                {
                  "code": "713546005",
                  "display": "Isosporiasis co-occurrent with human immunodeficiency virus infection (disorder)"
                },
                {
                  "code": "713570009",
                  "display": "Infectious gastroenteritis co-occurrent with human immunodeficiency virus infection (disorder)"
                },
                {
                  "code": "713571008",
                  "display": "Disorder of central nervous system co-occurrent with human immunodeficiency virus infection (disorder)"
                },
                {
                  "code": "713572001",
                  "display": "Malignant neoplastic disease co-occurrent with human immunodeficiency virus infection (disorder)"
                },
                {
                  "code": "713695001",
                  "display": "Nephrotic syndrome co-occurrent with human immunodeficiency virus infection (disorder)"
                },
                {
                  "code": "713696000",
                  "display": "Renal failure syndrome co-occurrent with human immunodeficiency virus infection (disorder)"
                },
                {
                  "code": "713718006",
                  "display": "Diffuse non-Hodgkin immunoblastic lymphoma co-occurrent with human immunodeficiency virus infection (disorder)"
                },
                {
                  "code": "713722001",
                  "display": "Infection caused by Cytomegalovirus co-occurrent with human immunodeficiency virus infection (disorder)"
                },
                {
                  "code": "713729005",
                  "display": "Infection caused by Coccidia co-occurrent with human immunodeficiency virus infection (disorder)"
                },
                {
                  "code": "713730000",
                  "display": "Infection caused by herpes simplex virus co-occurrent with human immunodeficiency virus infection (disorder)"
                },
                {
                  "code": "713731001",
                  "display": "Pyrexia of unknown origin co-occurrent with human immunodeficiency virus infection (disorder)"
                },
                {
                  "code": "713732008",
                  "display": "Infection caused by Aspergillus co-occurrent with human immunodeficiency virus infection (disorder)"
                },
                {
                  "code": "713733003",
                  "display": "Infection caused by herpes zoster virus co-occurrent with human immunodeficiency virus infection (disorder)"
                },
                {
                  "code": "713734009",
                  "display": "Infection caused by Dermatophyte co-occurrent with human immunodeficiency virus infection (disorder)"
                },
                {
                  "code": "713844000",
                  "display": "Dementia co-occurrent with human immunodeficiency virus infection (disorder)"
                },
                {
                  "code": "713845004",
                  "display": "Infection caused by Cryptosporidium co-occurrent with human immunodeficiency virus infection (disorder)"
                },
                {
                  "code": "713880000",
                  "display": "Opportunistic mycosis co-occurrent with human immunodeficiency virus infection (disorder)"
                },
                {
                  "code": "713881001",
                  "display": "Infection caused by Microsporidia co-occurrent with human immunodeficiency virus infection (disorder)"
                },
                {
                  "code": "713887002",
                  "display": "Focal segmental glomerulosclerosis co-occurrent with human immunodeficiency virus infection (disorder)"
                },
                {
                  "code": "713897006",
                  "display": "Burkitt lymphoma co-occurrent with human immunodeficiency virus infection (disorder)"
                },
                {
                  "code": "713964006",
                  "display": "Multidermatomal infection caused by Herpes zoster co-occurrent with human immunodeficiency virus infection (disorder)"
                },
                {
                  "code": "713967004",
                  "display": "Disseminated atypical infection caused by Mycobacterium co-occurrent with human immunodeficiency virus infection (disorder)"
                },
                {
                  "code": "714083007",
                  "display": "Recurrent salmonella sepsis co-occurrent with human immunodeficiency virus infection (disorder)"
                },
                {
                  "code": "714464009",
                  "display": "Immune reconstitution inflammatory syndrome caused by human immunodeficiency virus infection (disorder)"
                },
                {
                  "code": "72621000119104",
                  "display": "Human immunodeficiency virus (HIV) II infection category B1 (disorder)"
                },
                {
                  "code": "72631000119101",
                  "display": "Human immunodeficiency virus (HIV) II infection category B2 (disorder)"
                },
                {
                  "code": "733834006",
                  "display": "Invasive carcinoma of uterine cervix co-occurrent with human immunodeficiency virus infection (disorder)"
                },
                {
                  "code": "733835007",
                  "display": "Extrapulmonary tuberculosis co-occurrent with human immunodeficiency virus infection (disorder)"
                },
                {
                  "code": "79019005",
                  "display": "Human immunodeficiency virus II infection (disorder)"
                },
                {
                  "code": "81000119104",
                  "display": "Symptomatic human immunodeficiency virus infection (disorder)"
                },
                {
                  "code": "86406008",
                  "display": "Human immunodeficiency virus infection (disorder)"
                },
                {
                  "code": "87117006",
                  "display": "Human immunodeficiency virus infection with acute lymphadenitis (disorder)"
                },
                {
                  "code": "90681000119107",
                  "display": "Asymptomatic human immunodeficiency virus A1 infection (disorder)"
                },
                {
                  "code": "90691000119105",
                  "display": "Asymptomatic human immunodeficiency virus A2 infection (disorder)"
                },
                {
                  "code": "91947003",
                  "display": "Asymptomatic human immunodeficiency virus infection (disorder)"
                },
                {
                  "code": "91948008",
                  "display": "Asymptomatic human immunodeficiency virus infection in pregnancy (disorder)"
                }
              ]
            },
            {
              "system": "http://hl7.org/fhir/sid/icd-10",
              "version": "2020",
              "concept": [
                {
                  "code": "B20",
                  "display": "Human immunodeficiency virus [HIV] disease"
                },
                {
                  "code": "B97.35",
                  "display": "Human immunodeficiency virus, type 2 [HIV 2] as the cause of diseases classified elsewhere"
                },
                {
                  "code": "O98.711",
                  "display": "Human immunodeficiency virus [HIV] disease complicating pregnancy, first trimester"
                },
                {
                  "code": "O98.712",
                  "display": "Human immunodeficiency virus [HIV] disease complicating pregnancy, second trimester"
                },
                {
                  "code": "O98.713",
                  "display": "Human immunodeficiency virus [HIV] disease complicating pregnancy, third trimester"
                },
                {
                  "code": "O98.719",
                  "display": "Human immunodeficiency virus [HIV] disease complicating pregnancy, unspecified trimester"
                },
                {
                  "code": "O98.72",
                  "display": "Human immunodeficiency virus [HIV] disease complicating childbirth"
                },
                {
                  "code": "O98.73",
                  "display": "Human immunodeficiency virus [HIV] disease complicating the puerperium"
                },
                {
                  "code": "Z21",
                  "display": "Asymptomatic human immunodeficiency virus [HIV] infection status"
                }
              ]
            }
          ]
        }
      },
      "request": {
        "method": "PUT",
        "url": "ValueSet/2.16.840.1.113762.1.4.1056.54"
      }
    },
    {
      "resource": {
        "resourceType": "ValueSet",
        "id": "2.16.840.1.113762.1.4.1111.143",
        "url": "http://cts.nlm.nih.gov/fhir/ValueSet/2.16.840.1.113762.1.4.1111.143",
        "title": "Observation Services",
        "status": "active",
        "publisher": "The Joint Commission",
        "compose": {
          "include": [
            {
              "system": "http://snomed.info/sct",
              "version": "2019-09",
              "concept": [
                {
                  "code": "448851000124103",
                  "display": "Hospital admission from observation unit (procedure)"
                },
                {
                  "code": "448951000124107",
                  "display": "Admission to observation unit (procedure)"
                },
                {
                  "code": "76464004",
                  "display": "Hospital admission, for observation (procedure)"
                }
              ]
            }
          ]
        }
      },
      "request": {
        "method": "PUT",
        "url": "ValueSet/2.16.840.1.113762.1.4.1111.143"
      }
    },
    {
      "resource": {
        "resourceType": "ValueSet",
        "id": "2.16.840.1.113883.3.464.1003.101.12.1022",
        "url": "http://cts.nlm.nih.gov/fhir/ValueSet/2.16.840.1.113883.3.464.1003.101.12.1022",
        "title": "Preventive Care Services, Initial Office Visit, 0 to 17",
        "status": "active",
        "publisher": "National Committee for Quality Assurance",
        "compose": {
          "include": [
            {
              "system": "http://www.ama-assn.org/go/cpt",
              "version": "2020",
              "concept": [
                {
                  "code": "99381",
                  "display": "Initial comprehensive preventive medicine evaluation and management of an individual including an age and gender appropriate history, examination, counseling/anticipatory guidance/risk factor reduction interventions, and the ordering of laboratory/diagnostic procedures, new patient; infant (age younger than 1 year)"
                },
                {
                  "code": "99382",
                  "display": "Initial comprehensive preventive medicine evaluation and management of an individual including an age and gender appropriate history, examination, counseling/anticipatory guidance/risk factor reduction interventions, and the ordering of laboratory/diagnostic procedures, new patient; early childhood (age 1 through 4 years)"
                },
                {
                  "code": "99383",
                  "display": "Initial comprehensive preventive medicine evaluation and management of an individual including an age and gender appropriate history, examination, counseling/anticipatory guidance/risk factor reduction interventions, and the ordering of laboratory/diagnostic procedures, new patient; late childhood (age 5 through 11 years)"
                },
                {
                  "code": "99384",
                  "display": "Initial comprehensive preventive medicine evaluation and management of an individual including an age and gender appropriate history, examination, counseling/anticipatory guidance/risk factor reduction interventions, and the ordering of laboratory/diagnostic procedures, new patient; adolescent (age 12 through 17 years)"
                }
              ]
            }
          ]
        }
      },
      "request": {
        "method": "PUT",
        "url": "ValueSet/2.16.840.1.113883.3.464.1003.101.12.1022"
      }
    },
    {
      "resource": {
        "resourceType": "Encounter",
        "id": "numer-EXM349-FHIR4-2",
        "meta": {
          "profile": [
            "http://hl7.org/fhir/us/core/StructureDefinition/us-core-encounter"
          ]
        },
        "status": "finished",
        "class": {
          "system": "http://terminology.hl7.org/CodeSystem/v3-ActCode",
          "code": "AMB",
          "display": "ambulatory"
        },
        "type": [
          {
            "coding": [
              {
                "system": "http://www.ama-assn.org/go/cpt",
                "code": "99201",
                "display": "Office or other outpatient visit for the evaluation and management of a new patient, which requires these 3 key components: A problem focused history; A problem focused examination; Straightforward medical decision making. Counseling and/or coordination of care with other physicians, other qualified health care professionals, or agencies are provided consistent with the nature of the problem(s) and the patient's and/or family's needs. Usually, the presenting problem(s) are self limited or minor. Typically, 10 minutes are spent face-to-face with the patient and/or family."
              }
            ]
          }
        ],
        "subject": {
          "reference": "Patient/numer-EXM349-FHIR4"
        },
        "period": {
          "start": "2019-05-30T00:00:00.0",
          "end": "2019-05-31T00:00:00.0"
        }
      },
      "request": {
        "method": "PUT",
        "url": "Encounter/numer-EXM349-FHIR4-2"
      }
    },
    {
      "resource": {
        "resourceType": "ValueSet",
        "id": "2.16.840.1.113762.1.4.1",
        "url": "http://cts.nlm.nih.gov/fhir/ValueSet/2.16.840.1.113762.1.4.1",
        "identifier": [
          {
            "system": "urn:ietf:rfc:3986",
            "value": "2.16.840.1.113762.1.4.1"
          }
        ],
        "version": "20150331",
        "name": "ONCAdministrativeSex",
        "title": "ONC Administrative Sex",
        "status": "active",
        "publisher": "NLM",
        "compose": {
          "include": [
            {
              "system": "http://hl7.org/fhir/v3/AdministrativeGender",
              "version": "HL7V3.0_2017-07",
              "concept": [
                {
                  "code": "F",
                  "display": "Female"
                },
                {
                  "code": "M",
                  "display": "Male"
                }
              ]
            }
          ]
        }
      },
      "request": {
        "method": "PUT",
        "url": "ValueSet/2.16.840.1.113762.1.4.1"
      }
    },
    {
      "resource": {
        "resourceType": "Condition",
        "id": "denom_excl-EXM349-FHIR4-1",
        "meta": {
          "profile": [
            "http://hl7.org/fhir/us/core/StructureDefinition/us-core-condition"
          ]
        },
        "clinicalStatus": {
          "coding": [
            {
              "system": "http://terminology.hl7.org/CodeSystem/condition-clinical",
              "code": "active",
              "display": "Active"
            }
          ]
        },
        "verificationStatus": {
          "coding": [
            {
              "system": "http://terminology.hl7.org/CodeSystem/condition-verification",
              "code": "confirmed",
              "display": "Confirmed"
            }
          ]
        },
        "code": {
          "coding": [
            {
              "system": "http://hl7.org/fhir/sid/icd-9-cm",
              "code": "176.9",
              "display": "Kaposi's sarcoma, unspecified site"
            }
          ]
        },
        "subject": {
          "reference": "Patient/denom_excl-EXM349-FHIR4"
        },
        "onsetDateTime": "2018-11-01T00:00:00"
      },
      "request": {
        "method": "PUT",
        "url": "Condition/denom_excl-EXM349-FHIR4-1"
      }
    },
    {
      "resource": {
        "resourceType": "ValueSet",
        "id": "2.16.840.1.114222.4.11.3591",
        "url": "http://cts.nlm.nih.gov/fhir/ValueSet/2.16.840.1.114222.4.11.3591",
        "identifier": [
          {
            "system": "urn:ietf:rfc:3986",
            "value": "2.16.840.1.114222.4.11.3591"
          }
        ],
        "version": "20180718",
        "name": "Payer",
        "title": "Payer",
        "status": "active",
        "publisher": "NLM",
        "compose": {
          "include": [
            {
              "system": "http://www.phdsc.org/standards/pdfs/SourceofPaymentTypologyVersion6FINALSeptember2015.pdf",
              "version": "8.0",
              "concept": [
                {
                  "code": "1",
                  "display": "MEDICARE"
                },
                {
                  "code": "11",
                  "display": "Medicare (Managed Care)"
                },
                {
                  "code": "111",
                  "display": "Medicare HMO"
                },
                {
                  "code": "112",
                  "display": "Medicare PPO"
                },
                {
                  "code": "113",
                  "display": "Medicare POS"
                },
                {
                  "code": "119",
                  "display": "Medicare Managed Care Other"
                },
                {
                  "code": "12",
                  "display": "Medicare (Non-managed Care)"
                },
                {
                  "code": "121",
                  "display": "Medicare FFS"
                },
                {
                  "code": "122",
                  "display": "Medicare Drug Benefit"
                },
                {
                  "code": "123",
                  "display": "Medicare Medical Savings Account (MSA)"
                },
                {
                  "code": "129",
                  "display": "Medicare Non-managed Care Other"
                },
                {
                  "code": "13",
                  "display": "Medicare Hospice"
                },
                {
                  "code": "14",
                  "display": "Dual Eligibility Medicare/Medicaid Organization"
                },
                {
                  "code": "19",
                  "display": "Medicare Other"
                },
                {
                  "code": "191",
                  "display": "Medicare Pharmacy Benefit Manager"
                },
                {
                  "code": "2",
                  "display": "MEDICAID"
                },
                {
                  "code": "21",
                  "display": "Medicaid (Managed Care)"
                },
                {
                  "code": "211",
                  "display": "Medicaid HMO"
                },
                {
                  "code": "212",
                  "display": "Medicaid PPO"
                },
                {
                  "code": "213",
                  "display": "Medicaid PCCM (Primary Care Case Management)"
                },
                {
                  "code": "219",
                  "display": "Medicaid Managed Care Other"
                },
                {
                  "code": "22",
                  "display": "Medicaid (Non-managed Care Plan)"
                },
                {
                  "code": "23",
                  "display": "Medicaid/SCHIP"
                },
                {
                  "code": "25",
                  "display": "Medicaid - Out of State"
                },
                {
                  "code": "26",
                  "display": "Medicaid -- Long Term Care"
                },
                {
                  "code": "29",
                  "display": "Medicaid Other"
                },
                {
                  "code": "291",
                  "display": "Medicaid Pharmacy Benefit Manager"
                },
                {
                  "code": "299",
                  "display": "Medicaid - Dental"
                },
                {
                  "code": "3",
                  "display": "OTHER GOVERNMENT (Federal/State/Local) (excluding Department of Corrections)"
                },
                {
                  "code": "31",
                  "display": "Department of Defense"
                },
                {
                  "code": "311",
                  "display": "TRICARE (CHAMPUS)"
                },
                {
                  "code": "3111",
                  "display": "TRICARE Prime--HMO"
                },
                {
                  "code": "3112",
                  "display": "TRICARE Extra--PPO"
                },
                {
                  "code": "3113",
                  "display": "TRICARE Standard - Fee For Service"
                },
                {
                  "code": "3114",
                  "display": "TRICARE For Life--Medicare Supplement"
                },
                {
                  "code": "3115",
                  "display": "TRICARE Reserve Select"
                },
                {
                  "code": "3116",
                  "display": "Uniformed Services Family Health Plan (USFHP) -- HMO"
                },
                {
                  "code": "3119",
                  "display": "Department of Defense - (other)"
                },
                {
                  "code": "312",
                  "display": "Military Treatment Facility"
                },
                {
                  "code": "3121",
                  "display": "Enrolled Prime--HMO"
                },
                {
                  "code": "3122",
                  "display": "Non-enrolled Space Available"
                },
                {
                  "code": "3123",
                  "display": "TRICARE For Life (TFL)"
                },
                {
                  "code": "313",
                  "display": "Dental --Stand Alone"
                },
                {
                  "code": "32",
                  "display": "Department of Veterans Affairs"
                },
                {
                  "code": "321",
                  "display": "Veteran care--Care provided to Veterans"
                },
                {
                  "code": "3211",
                  "display": "Direct Care--Care provided in VA facilities"
                },
                {
                  "code": "3212",
                  "display": "Indirect Care--Care provided outside VA facilities"
                },
                {
                  "code": "32121",
                  "display": "Fee Basis"
                },
                {
                  "code": "32122",
                  "display": "Foreign Fee/Foreign Medical Program (FMP)"
                },
                {
                  "code": "32123",
                  "display": "Contract Nursing Home/Community Nursing Home"
                },
                {
                  "code": "32124",
                  "display": "State Veterans Home"
                },
                {
                  "code": "32125",
                  "display": "Sharing Agreements"
                },
                {
                  "code": "32126",
                  "display": "Other Federal Agency"
                },
                {
                  "code": "32127",
                  "display": "Dental Care"
                },
                {
                  "code": "32128",
                  "display": "Vision Care"
                },
                {
                  "code": "322",
                  "display": "Non-veteran care"
                },
                {
                  "code": "3221",
                  "display": "Civilian Health and Medical Program for the VA (CHAMPVA)"
                },
                {
                  "code": "3222",
                  "display": "Spina Bifida Health Care Program (SB)"
                },
                {
                  "code": "3223",
                  "display": "Children of Women Vietnam Veterans (CWVV)"
                },
                {
                  "code": "3229",
                  "display": "Other non-veteran care"
                },
                {
                  "code": "33",
                  "display": "Indian Health Service or Tribe"
                },
                {
                  "code": "331",
                  "display": "Indian Health Service -- Regular"
                },
                {
                  "code": "332",
                  "display": "Indian Health Service -- Contract"
                },
                {
                  "code": "333",
                  "display": "Indian Health Service - Managed Care"
                },
                {
                  "code": "334",
                  "display": "Indian Tribe - Sponsored Coverage"
                },
                {
                  "code": "34",
                  "display": "HRSA Program"
                },
                {
                  "code": "341",
                  "display": "Title V (MCH Block Grant)"
                },
                {
                  "code": "342",
                  "display": "Migrant Health Program"
                },
                {
                  "code": "343",
                  "display": "Ryan White Act"
                },
                {
                  "code": "349",
                  "display": "Other"
                },
                {
                  "code": "35",
                  "display": "Black Lung"
                },
                {
                  "code": "36",
                  "display": "State Government"
                },
                {
                  "code": "361",
                  "display": "State SCHIP program (codes for individual states)"
                },
                {
                  "code": "362",
                  "display": "Specific state programs (list/ local code)"
                },
                {
                  "code": "369",
                  "display": "State, not otherwise specified (other state)"
                },
                {
                  "code": "37",
                  "display": "Local Government"
                },
                {
                  "code": "371",
                  "display": "Local - Managed care"
                },
                {
                  "code": "3711",
                  "display": "HMO"
                },
                {
                  "code": "3712",
                  "display": "PPO"
                },
                {
                  "code": "3713",
                  "display": "POS"
                },
                {
                  "code": "372",
                  "display": "FFS/Indemnity"
                },
                {
                  "code": "379",
                  "display": "Local, not otherwise specified (other local, county)"
                },
                {
                  "code": "38",
                  "display": "Other Government (Federal, State, Local not specified)"
                },
                {
                  "code": "381",
                  "display": "Federal, State, Local not specified managed care"
                },
                {
                  "code": "3811",
                  "display": "Federal, State, Local not specified - HMO"
                },
                {
                  "code": "3812",
                  "display": "Federal, State, Local not specified - PPO"
                },
                {
                  "code": "3813",
                  "display": "Federal, State, Local not specified - POS"
                },
                {
                  "code": "3819",
                  "display": "Federal, State, Local not specified - not specified managed care"
                },
                {
                  "code": "382",
                  "display": "Federal, State, Local not specified - FFS"
                },
                {
                  "code": "389",
                  "display": "Federal, State, Local not specified - Other"
                },
                {
                  "code": "39",
                  "display": "Other Federal"
                },
                {
                  "code": "391",
                  "display": "Federal Employee Health Plan - Use when known"
                },
                {
                  "code": "4",
                  "display": "DEPARTMENTS OF CORRECTIONS"
                },
                {
                  "code": "41",
                  "display": "Corrections Federal"
                },
                {
                  "code": "42",
                  "display": "Corrections State"
                },
                {
                  "code": "43",
                  "display": "Corrections Local"
                },
                {
                  "code": "44",
                  "display": "Corrections Unknown Level"
                },
                {
                  "code": "5",
                  "display": "PRIVATE HEALTH INSURANCE"
                },
                {
                  "code": "51",
                  "display": "Managed Care (Private)"
                },
                {
                  "code": "511",
                  "display": "Commercial Managed Care - HMO"
                },
                {
                  "code": "512",
                  "display": "Commercial Managed Care - PPO"
                },
                {
                  "code": "513",
                  "display": "Commercial Managed Care - POS"
                },
                {
                  "code": "514",
                  "display": "Exclusive Provider Organization"
                },
                {
                  "code": "515",
                  "display": "Gatekeeper PPO (GPPO)"
                },
                {
                  "code": "516",
                  "display": "Commercial Managed Care - Pharmacy Benefit Manager"
                },
                {
                  "code": "517",
                  "display": "Commercial Managed Care - Dental"
                },
                {
                  "code": "519",
                  "display": "Managed Care, Other (non HMO)"
                },
                {
                  "code": "52",
                  "display": "Private Health Insurance - Indemnity"
                },
                {
                  "code": "521",
                  "display": "Commercial Indemnity"
                },
                {
                  "code": "522",
                  "display": "Self-insured (ERISA) Administrative Services Only (ASO) plan"
                },
                {
                  "code": "523",
                  "display": "Medicare supplemental policy (as second payer)"
                },
                {
                  "code": "524",
                  "display": "Indemnity Insurance - Dental"
                },
                {
                  "code": "529",
                  "display": "Private health insurance--other commercial Indemnity"
                },
                {
                  "code": "53",
                  "display": "Managed Care (private) or private health insurance (indemnity), not otherwise specified"
                },
                {
                  "code": "54",
                  "display": "Organized Delivery System"
                },
                {
                  "code": "55",
                  "display": "Small Employer Purchasing Group"
                },
                {
                  "code": "56",
                  "display": "Specialized Stand Alone Plan"
                },
                {
                  "code": "561",
                  "display": "Dental"
                },
                {
                  "code": "562",
                  "display": "Vision"
                },
                {
                  "code": "59",
                  "display": "Other Private Insurance"
                },
                {
                  "code": "6",
                  "display": "BLUE CROSS/BLUE SHIELD"
                },
                {
                  "code": "61",
                  "display": "BC Managed Care"
                },
                {
                  "code": "611",
                  "display": "BC Managed Care -- HMO"
                },
                {
                  "code": "612",
                  "display": "BC Managed Care -- PPO"
                },
                {
                  "code": "613",
                  "display": "BC Managed Care -- POS"
                },
                {
                  "code": "614",
                  "display": "BC Managed Care - Dental"
                },
                {
                  "code": "619",
                  "display": "BC Managed Care -- Other"
                },
                {
                  "code": "62",
                  "display": "BC Insurance Indemnity"
                },
                {
                  "code": "621",
                  "display": "BC Indemnity"
                },
                {
                  "code": "622",
                  "display": "BC Self-insured (ERISA) Administrative Services Only (ASO)Plan"
                },
                {
                  "code": "623",
                  "display": "BC Medicare Supplemental Plan"
                },
                {
                  "code": "629",
                  "display": "BC Indemnity - Dental"
                },
                {
                  "code": "7",
                  "display": "MANAGED CARE, UNSPECIFIED (to be used only if one can't distinguish public from private)"
                },
                {
                  "code": "71",
                  "display": "HMO"
                },
                {
                  "code": "72",
                  "display": "PPO"
                },
                {
                  "code": "73",
                  "display": "POS"
                },
                {
                  "code": "79",
                  "display": "Other Managed Care"
                },
                {
                  "code": "8",
                  "display": "NO PAYMENT from an Organization/Agency/Program/Private Payer Listed"
                },
                {
                  "code": "81",
                  "display": "Self-pay (Includes applicants for insurance and Medicaid applicants)"
                },
                {
                  "code": "82",
                  "display": "No Charge"
                },
                {
                  "code": "821",
                  "display": "Charity"
                },
                {
                  "code": "822",
                  "display": "Professional Courtesy"
                },
                {
                  "code": "823",
                  "display": "Research/Clinical Trial"
                },
                {
                  "code": "83",
                  "display": "Refusal to Pay/Bad Debt"
                },
                {
                  "code": "84",
                  "display": "Hill Burton Free Care"
                },
                {
                  "code": "85",
                  "display": "Research/Donor"
                },
                {
                  "code": "89",
                  "display": "No Payment, Other"
                },
                {
                  "code": "9",
                  "display": "MISCELLANEOUS/OTHER"
                },
                {
                  "code": "91",
                  "display": "Foreign National"
                },
                {
                  "code": "92",
                  "display": "Other (Non-government)"
                },
                {
                  "code": "93",
                  "display": "Disability Insurance"
                },
                {
                  "code": "94",
                  "display": "Long-term Care Insurance"
                },
                {
                  "code": "95",
                  "display": "Worker's Compensation"
                },
                {
                  "code": "951",
                  "display": "Worker's Comp HMO"
                },
                {
                  "code": "953",
                  "display": "Worker's Comp Fee-for-Service"
                },
                {
                  "code": "954",
                  "display": "Worker's Comp Other Managed Care"
                },
                {
                  "code": "959",
                  "display": "Worker's Comp, Other unspecified"
                },
                {
                  "code": "96",
                  "display": "Auto Insurance (includes no fault)"
                },
                {
                  "code": "97",
                  "display": "Legal Liability / Liability Insurance"
                },
                {
                  "code": "98",
                  "display": "Other specified but not otherwise classifiable (includes Hospice - Unspecified plan)"
                },
                {
                  "code": "99",
                  "display": "No Typology Code available for payment source"
                },
                {
                  "code": "9999",
                  "display": "Unavailable / No Payer Specified / Blank"
                }
              ]
            }
          ]
        }
      },
      "request": {
        "method": "PUT",
        "url": "ValueSet/2.16.840.1.114222.4.11.3591"
      }
    },
    {
      "resource": {
        "resourceType": "Observation",
        "id": "numer-EXM349-FHIR4-3",
        "meta": {
          "profile": [
            "http://hl7.org/fhir/observation"
          ]
        },
        "status": "final",
        "code": {
          "coding": [
            {
              "system": "http://loinc.org",
              "code": "11082-5",
              "display": "HIV 2 p68 Ab [Presence] in Serum by Immunoblot"
            }
          ]
        },
        "subject": {
          "reference": "Patient/numer-EXM349-FHIR4"
        },
        "effectiveDateTime": "2019-11-01T00:00:00",
        "valueBoolean": true
      },
      "request": {
        "method": "PUT",
        "url": "Observation/numer-EXM349-FHIR4-3"
      }
    },
    {
      "resource": {
        "resourceType": "ValueSet",
        "id": "2.16.840.1.113883.3.666.5.307",
        "url": "http://cts.nlm.nih.gov/fhir/ValueSet/2.16.840.1.113883.3.666.5.307",
        "identifier": [
          {
            "system": "urn:ietf:rfc:3986",
            "value": "2.16.840.1.113883.3.666.5.307"
          }
        ],
        "version": "20170504",
        "name": "EncounterInpatient",
        "title": "Encounter Inpatient",
        "status": "active",
        "publisher": "NLM",
        "compose": {
          "include": [
            {
              "system": "http://snomed.info/sct",
              "version": "2018-03",
              "concept": [
                {
                  "code": "183452005",
                  "display": "Emergency hospital admission (procedure)"
                },
                {
                  "code": "32485007",
                  "display": "Hospital admission (procedure)"
                },
                {
                  "code": "8715000",
                  "display": "Hospital admission, elective (procedure)"
                }
              ]
            }
          ]
        }
      },
      "request": {
        "method": "PUT",
        "url": "ValueSet/2.16.840.1.113883.3.666.5.307"
      }
    },
    {
      "resource": {
        "resourceType": "Observation",
        "id": "denom-EXM349-FHIR4-3",
        "meta": {
          "profile": [
            "http://hl7.org/fhir/observation"
          ]
        },
        "status": "final",
        "code": {
          "coding": [
            {
              "system": "http://loinc.org",
              "code": "10524-7",
              "display": "Microscopic observation [Identifier] in Cervix by Cyto stain"
            }
          ]
        },
        "subject": {
          "reference": "Patient/denom-EXM349-FHIR4"
        },
        "effectiveDateTime": "2019-11-01T00:00:00"
      },
      "request": {
        "method": "PUT",
        "url": "Observation/denom-EXM349-FHIR4-3"
      }
    },
    {
      "resource": {
        "resourceType": "Condition",
        "id": "denom-EXM349-FHIR4-1",
        "meta": {
          "profile": [
            "http://hl7.org/fhir/us/core/StructureDefinition/us-core-condition"
          ]
        },
        "verificationStatus": {
          "coding": [
            {
              "system": "http://terminology.hl7.org/CodeSystem/condition-ver-status",
              "code": "confirmed",
              "display": "Confirmed"
            }
          ]
        },
        "category": [
          {
            "coding": [
              {
                "system": "http://terminology.hl7.org/CodeSystem/condition-category",
                "code": "encounter-diagnosis",
                "display": "Encounter Diagnosis"
              }
            ]
          }
        ],
        "code": {
          "coding": [
            {
              "system": "http://snomed.info/sct",
              "code": "116288000",
              "display": "Paralytic stroke (disorder)"
            }
          ]
        },
        "subject": {
          "reference": "Patient/denom-EXM349-FHIR4"
        }
      },
      "request": {
        "method": "PUT",
        "url": "Condition/denom-EXM349-FHIR4-1"
      }
    },
    {
      "resource": {
        "resourceType": "ValueSet",
        "id": "2.16.840.1.113883.3.117.1.7.1.292",
        "url": "http://cts.nlm.nih.gov/fhir/ValueSet/2.16.840.1.113883.3.117.1.7.1.292",
        "title": "Emergency Department Visit",
        "status": "active",
        "publisher": "The Joint Commission",
        "compose": {
          "include": [
            {
              "system": "http://snomed.info/sct",
              "version": "2019-03",
              "concept": [
                {
                  "code": "4525004",
                  "display": "Emergency department patient visit (procedure)"
                }
              ]
            }
          ]
        }
      },
      "request": {
        "method": "PUT",
        "url": "ValueSet/2.16.840.1.113883.3.117.1.7.1.292"
      }
    },
    {
      "resource": {
        "resourceType": "ValueSet",
        "id": "2.16.840.1.113762.1.4.1056.50",
        "meta": {
          "versionId": "16",
          "lastUpdated": "2019-03-02T01:00:10.000-05:00"
        },
        "text": {
          "status": "generated",
          "div": "<div xmlns=\"http://www.w3.org/1999/xhtml\"><h2>Human Immunodeficiency Virus (HIV) Laboratory Test Codes (Ab and Ag)</h2><p>This value set includes codes from the following code systems:</p><ul><li>Include these codes as defined in <a href=\"http://loinc.org\"><code>http://loinc.org</code></a><table class=\"none\"><tr><td><b>Code</b></td><td><b>Display</b></td></tr><tr><td><a href=\"http://details.loinc.org/LOINC/10901-7.html\">10901-7</a></td><td>HIV 2 gp125 Ab [Presence] in Serum by Immunoblot</td><td/></tr><tr><td><a href=\"http://details.loinc.org/LOINC/10902-5.html\">10902-5</a></td><td>HIV 2 gp36 Ab [Presence] in Serum by Immunoblot</td><td/></tr><tr><td><a href=\"http://details.loinc.org/LOINC/11078-3.html\">11078-3</a></td><td>HIV 2 gp80 Ab [Presence] in Serum by Immunoblot</td><td/></tr><tr><td><a href=\"http://details.loinc.org/LOINC/11079-1.html\">11079-1</a></td><td>HIV 2 p26 Ab [Presence] in Serum by Immunoblot</td><td/></tr><tr><td><a href=\"http://details.loinc.org/LOINC/11080-9.html\">11080-9</a></td><td>HIV 2 p53 Ab [Presence] in Serum by Immunoblot</td><td/></tr><tr><td><a href=\"http://details.loinc.org/LOINC/11081-7.html\">11081-7</a></td><td>HIV 2 p56 Ab [Presence] in Serum by Immunoblot</td><td/></tr><tr><td><a href=\"http://details.loinc.org/LOINC/11082-5.html\">11082-5</a></td><td>HIV 2 p68 Ab [Presence] in Serum by Immunoblot</td><td/></tr><tr><td><a href=\"http://details.loinc.org/LOINC/12855-3.html\">12855-3</a></td><td>HIV 1 p23 Ab [Presence] in Serum by Immunoblot</td><td/></tr><tr><td><a href=\"http://details.loinc.org/LOINC/12856-1.html\">12856-1</a></td><td>HIV 1 p65 Ab [Presence] in Serum by Immunoblot</td><td/></tr><tr><td><a href=\"http://details.loinc.org/LOINC/12857-9.html\">12857-9</a></td><td>HIV 1 p28 Ab [Presence] in Serum by Immunoblot</td><td/></tr><tr><td><a href=\"http://details.loinc.org/LOINC/12858-7.html\">12858-7</a></td><td>HIV 1 p32 Ab [Presence] in Serum by Immunoblot</td><td/></tr><tr><td><a href=\"http://details.loinc.org/LOINC/12859-5.html\">12859-5</a></td><td>HIV 1 p18 Ab [Presence] in Serum by Immunoblot</td><td/></tr><tr><td><a href=\"http://details.loinc.org/LOINC/12870-2.html\">12870-2</a></td><td>HIV 1 gp34 Ab [Presence] in Serum by Immunoblot</td><td/></tr><tr><td><a href=\"http://details.loinc.org/LOINC/12871-0.html\">12871-0</a></td><td>HIV 1 p26 Ab [Presence] in Serum by Immunoblot</td><td/></tr><tr><td><a href=\"http://details.loinc.org/LOINC/12872-8.html\">12872-8</a></td><td>HIV 1 p15 Ab [Presence] in Serum by Immunoblot</td><td/></tr><tr><td><a href=\"http://details.loinc.org/LOINC/12875-1.html\">12875-1</a></td><td>HIV 1 p64 Ab [Presence] in Serum by Immunoblot</td><td/></tr><tr><td><a href=\"http://details.loinc.org/LOINC/12876-9.html\">12876-9</a></td><td>HIV 1 p53 Ab [Presence] in Serum by Immunoblot</td><td/></tr><tr><td><a href=\"http://details.loinc.org/LOINC/12893-4.html\">12893-4</a></td><td>HIV 1 gp105 Ab [Presence] in Serum by Immunoblot</td><td/></tr><tr><td><a href=\"http://details.loinc.org/LOINC/12894-2.html\">12894-2</a></td><td>HIV 1 p68 Ab [Presence] in Serum by Immunoblot</td><td/></tr><tr><td><a href=\"http://details.loinc.org/LOINC/12895-9.html\">12895-9</a></td><td>HIV 1 p58 Ab [Presence] in Serum by Immunoblot</td><td/></tr><tr><td><a href=\"http://details.loinc.org/LOINC/13499-9.html\">13499-9</a></td><td>HIV 1 Ab band pattern [Interpretation] in Serum by Immunoblot</td><td/></tr><tr><td><a href=\"http://details.loinc.org/LOINC/13920-4.html\">13920-4</a></td><td>HIV 2 p41 Ab [Presence] in Serum by Immunoblot</td><td/></tr><tr><td><a href=\"http://details.loinc.org/LOINC/14092-1.html\">14092-1</a></td><td>HIV 1 Ab [Presence] in Serum by Immunofluorescence</td><td/></tr><tr><td><a href=\"http://details.loinc.org/LOINC/14126-7.html\">14126-7</a></td><td>HIV 1 gp120+gp160 Ab [Presence] in Serum by Immunoblot</td><td/></tr><tr><td><a href=\"http://details.loinc.org/LOINC/16132-3.html\">16132-3</a></td><td>HIV 1 p15+p18 Ab [Presence] in Serum by Immunoblot</td><td/></tr><tr><td><a href=\"http://details.loinc.org/LOINC/16974-8.html\">16974-8</a></td><td>HIV 1 Ab [Presence] in Cerebral spinal fluid</td><td/></tr><tr><td><a href=\"http://details.loinc.org/LOINC/16975-5.html\">16975-5</a></td><td>HIV 1 IgG Ab [Presence] in Serum</td><td/></tr><tr><td><a href=\"http://details.loinc.org/LOINC/16976-3.html\">16976-3</a></td><td>HIV 1 Ag [Units/volume] in Serum</td><td/></tr><tr><td><a href=\"http://details.loinc.org/LOINC/16977-1.html\">16977-1</a></td><td>HIV 1 Ag [Presence] in Cerebral spinal fluid</td><td/></tr><tr><td><a href=\"http://details.loinc.org/LOINC/16978-9.html\">16978-9</a></td><td>HIV 1 p24 Ab [Units/volume] in Serum</td><td/></tr><tr><td><a href=\"http://details.loinc.org/LOINC/16979-7.html\">16979-7</a></td><td>HIV 1 p24 Ag [Units/volume] in Cerebral spinal fluid</td><td/></tr><tr><td><a href=\"http://details.loinc.org/LOINC/18396-2.html\">18396-2</a></td><td>HIV 1 p24 Ag [Presence] in Serum or Plasma by Immunoassay</td><td/></tr><tr><td><a href=\"http://details.loinc.org/LOINC/19110-6.html\">19110-6</a></td><td>HIV 1 gp41+gp43 Ab [Presence] in Serum by Immunoblot</td><td/></tr><tr><td><a href=\"http://details.loinc.org/LOINC/21007-0.html\">21007-0</a></td><td>HIV 1 Ab [Presence] in Serum from Donor</td><td/></tr><tr><td><a href=\"http://details.loinc.org/LOINC/21331-4.html\">21331-4</a></td><td>HIV 1 p24 Ab [Titer] in Serum by Immunoblot</td><td/></tr><tr><td><a href=\"http://details.loinc.org/LOINC/21332-2.html\">21332-2</a></td><td>HIV 1 p41 Ab [Titer] in Serum by Immunoblot</td><td/></tr><tr><td><a href=\"http://details.loinc.org/LOINC/21334-8.html\">21334-8</a></td><td>HIV 2 gp105 Ab [Presence] in Serum by Immunoblot</td><td/></tr><tr><td><a href=\"http://details.loinc.org/LOINC/21335-5.html\">21335-5</a></td><td>HIV 2 gp120 Ab [Presence] in Serum by Immunoblot</td><td/></tr><tr><td><a href=\"http://details.loinc.org/LOINC/21336-3.html\">21336-3</a></td><td>HIV 2 gp15 Ab [Presence] in Serum by Immunoblot</td><td/></tr><tr><td><a href=\"http://details.loinc.org/LOINC/21337-1.html\">21337-1</a></td><td>HIV 2 gp34 Ab [Presence] in Serum by Immunoblot</td><td/></tr><tr><td><a href=\"http://details.loinc.org/LOINC/21338-9.html\">21338-9</a></td><td>HIV 2 p31 Ab [Presence] in Serum by Immunoblot</td><td/></tr><tr><td><a href=\"http://details.loinc.org/LOINC/21339-7.html\">21339-7</a></td><td>HIV 2 p55 Ab [Presence] in Serum by Immunoblot</td><td/></tr><tr><td><a href=\"http://details.loinc.org/LOINC/21340-5.html\">21340-5</a></td><td>HIV 2 p58 Ab [Presence] in Serum by Immunoblot</td><td/></tr><tr><td><a href=\"http://details.loinc.org/LOINC/22356-0.html\">22356-0</a></td><td>HIV 1 Ab [Units/volume] in Serum</td><td/></tr><tr><td><a href=\"http://details.loinc.org/LOINC/22357-8.html\">22357-8</a></td><td>HIV 1+2 Ab [Units/volume] in Serum</td><td/></tr><tr><td><a href=\"http://details.loinc.org/LOINC/22358-6.html\">22358-6</a></td><td>HIV 2 Ab [Units/volume] in Serum</td><td/></tr><tr><td><a href=\"http://details.loinc.org/LOINC/24012-7.html\">24012-7</a></td><td>HIV 1 Ag [Presence] in Serum</td><td/></tr><tr><td><a href=\"http://details.loinc.org/LOINC/28004-0.html\">28004-0</a></td><td>HIV 1 IgG Ab [Presence] in Cerebral spinal fluid by Immunoblot</td><td/></tr><tr><td><a href=\"http://details.loinc.org/LOINC/28052-9.html\">28052-9</a></td><td>HIV 1 Ab.IgG band pattern [Interpretation] in Cerebral spinal fluid by Immunoblot</td><td/></tr><tr><td><a href=\"http://details.loinc.org/LOINC/29327-4.html\">29327-4</a></td><td>HIV 1 Ab [Presence] in Body fluid</td><td/></tr><tr><td><a href=\"http://details.loinc.org/LOINC/29893-5.html\">29893-5</a></td><td>HIV 1 Ab [Presence] in Serum or Plasma by Immunoassay</td><td/></tr><tr><td><a href=\"http://details.loinc.org/LOINC/30361-0.html\">30361-0</a></td><td>HIV 2 Ab [Presence] in Serum or Plasma by Immunoassay</td><td/></tr><tr><td><a href=\"http://details.loinc.org/LOINC/31072-2.html\">31072-2</a></td><td>HIV 1 p41 Ab [Presence] in Serum by Immunoblot</td><td/></tr><tr><td><a href=\"http://details.loinc.org/LOINC/31073-0.html\">31073-0</a></td><td>HIV 2 Ab band pattern [Interpretation] in Serum by Immunoblot</td><td/></tr><tr><td><a href=\"http://details.loinc.org/LOINC/31201-7.html\">31201-7</a></td><td>HIV 1+2 Ab [Presence] in Serum or Plasma by Immunoassay</td><td/></tr><tr><td><a href=\"http://details.loinc.org/LOINC/31430-2.html\">31430-2</a></td><td>HIV 1 IgG Ab [Presence] in Cerebral spinal fluid</td><td/></tr><tr><td><a href=\"http://details.loinc.org/LOINC/32571-2.html\">32571-2</a></td><td>HIV 1 Ab [Presence] in Urine by Immunoblot</td><td/></tr><tr><td><a href=\"http://details.loinc.org/LOINC/32602-5.html\">32602-5</a></td><td>HIV 1+2 Ab [Presence] in Cerebral spinal fluid</td><td/></tr><tr><td><a href=\"http://details.loinc.org/LOINC/32827-8.html\">32827-8</a></td><td>HIV 1 p17+p18 Ab [Presence] in Serum by Immunoblot</td><td/></tr><tr><td><a href=\"http://details.loinc.org/LOINC/32842-7.html\">32842-7</a></td><td>HIV 1 p17+p18 Ab [Presence] in Serum</td><td/></tr><tr><td><a href=\"http://details.loinc.org/LOINC/33508-3.html\">33508-3</a></td><td>HIV 1 p65+p66 Ab [Presence] in Serum by Immunoblot</td><td/></tr><tr><td><a href=\"http://details.loinc.org/LOINC/33660-2.html\">33660-2</a></td><td>HIV 1 p24 Ag [Presence] in Serum or Plasma by Neutralization test</td><td/></tr><tr><td><a href=\"http://details.loinc.org/LOINC/33806-1.html\">33806-1</a></td><td>HIV 2 IgG Ab [Presence] in Serum by Immunoblot</td><td/></tr><tr><td><a href=\"http://details.loinc.org/LOINC/33807-9.html\">33807-9</a></td><td>HIV 2 IgG Ab [Presence] in Serum</td><td/></tr><tr><td><a href=\"http://details.loinc.org/LOINC/33866-5.html\">33866-5</a></td><td>HIV 1 Ab [Presence] in Capillary blood by Immunoassay</td><td/></tr><tr><td><a href=\"http://details.loinc.org/LOINC/34591-8.html\">34591-8</a></td><td>HIV 1 Ab [Presence] in Body fluid by Immunoassay</td><td/></tr><tr><td><a href=\"http://details.loinc.org/LOINC/34592-6.html\">34592-6</a></td><td>HIV 1 Ab [Presence] in Body fluid by Immunoblot</td><td/></tr><tr><td><a href=\"http://details.loinc.org/LOINC/35437-3.html\">35437-3</a></td><td>HIV 1 Ab [Presence] in Saliva (oral fluid) by Immunoassay</td><td/></tr><tr><td><a href=\"http://details.loinc.org/LOINC/35438-1.html\">35438-1</a></td><td>HIV 1 Ab [Units/volume] in Saliva (oral fluid) by Immunoassay</td><td/></tr><tr><td><a href=\"http://details.loinc.org/LOINC/35439-9.html\">35439-9</a></td><td>HIV 1 Ab [Presence] in Saliva (oral fluid) by Immunoblot</td><td/></tr><tr><td><a href=\"http://details.loinc.org/LOINC/35440-7.html\">35440-7</a></td><td>HIV 1 gp160 Ab [Presence] in Saliva (oral fluid) by Immunoblot</td><td/></tr><tr><td><a href=\"http://details.loinc.org/LOINC/35441-5.html\">35441-5</a></td><td>HIV 1 gp120 Ab [Presence] in Saliva (oral fluid) by Immunoblot</td><td/></tr><tr><td><a href=\"http://details.loinc.org/LOINC/35442-3.html\">35442-3</a></td><td>HIV 1 p66 Ab [Presence] in Saliva (oral fluid) by Immunoblot</td><td/></tr><tr><td><a href=\"http://details.loinc.org/LOINC/35443-1.html\">35443-1</a></td><td>HIV 1 p65 Ab [Presence] in Saliva (oral fluid) by Immunoblot</td><td/></tr><tr><td><a href=\"http://details.loinc.org/LOINC/35444-9.html\">35444-9</a></td><td>HIV 1 p55 Ab [Presence] in Saliva (oral fluid) by Immunoblot</td><td/></tr><tr><td><a href=\"http://details.loinc.org/LOINC/35445-6.html\">35445-6</a></td><td>HIV 1 p51 Ab [Presence] in Saliva (oral fluid) by Immunoblot</td><td/></tr><tr><td><a href=\"http://details.loinc.org/LOINC/35446-4.html\">35446-4</a></td><td>HIV 1 gp41 Ab [Presence] in Saliva (oral fluid) by Immunoblot</td><td/></tr><tr><td><a href=\"http://details.loinc.org/LOINC/35447-2.html\">35447-2</a></td><td>HIV 1 p31 Ab [Presence] in Saliva (oral fluid) by Immunoblot</td><td/></tr><tr><td><a href=\"http://details.loinc.org/LOINC/35448-0.html\">35448-0</a></td><td>HIV 1 p24 Ab [Presence] in Saliva (oral fluid) by Immunoblot</td><td/></tr><tr><td><a href=\"http://details.loinc.org/LOINC/35449-8.html\">35449-8</a></td><td>HIV 1 p17 Ab [Presence] in Saliva (oral fluid) by Immunoblot</td><td/></tr><tr><td><a href=\"http://details.loinc.org/LOINC/35450-6.html\">35450-6</a></td><td>HIV 1 p18 Ab [Presence] in Saliva (oral fluid) by Immunoblot</td><td/></tr><tr><td><a href=\"http://details.loinc.org/LOINC/35452-2.html\">35452-2</a></td><td>HIV 1 gp40 Ab [Presence] in Serum by Immunoblot</td><td/></tr><tr><td><a href=\"http://details.loinc.org/LOINC/35564-4.html\">35564-4</a></td><td>HIV 1 p31+p32 Ab [Presence] in Serum by Immunoblot</td><td/></tr><tr><td><a href=\"http://details.loinc.org/LOINC/35565-1.html\">35565-1</a></td><td>HIV 1 p40 Ab [Presence] in Serum by Immunoblot</td><td/></tr><tr><td><a href=\"http://details.loinc.org/LOINC/40437-6.html\">40437-6</a></td><td>HIV 1 p24 Ab [Presence] in Serum or Plasma by Immunoassay</td><td/></tr><tr><td><a href=\"http://details.loinc.org/LOINC/40438-4.html\">40438-4</a></td><td>HIV 1 gp41 Ab [Presence] in Serum or Plasma by Immunoassay</td><td/></tr><tr><td><a href=\"http://details.loinc.org/LOINC/40439-2.html\">40439-2</a></td><td>HIV 1 gp120+gp160 Ab [Presence] in Serum or Plasma by Immunoassay</td><td/></tr><tr><td><a href=\"http://details.loinc.org/LOINC/40732-0.html\">40732-0</a></td><td>HIV 1 IgG Ab [Presence] in Serum by Immunoblot</td><td/></tr><tr><td><a href=\"http://details.loinc.org/LOINC/40733-8.html\">40733-8</a></td><td>HIV 1+2 IgG Ab [Presence] in Serum or Plasma by Immunoassay</td><td/></tr><tr><td><a href=\"http://details.loinc.org/LOINC/41143-9.html\">41143-9</a></td><td>HIV 1 Ab [Units/volume] in Saliva (oral fluid)</td><td/></tr><tr><td><a href=\"http://details.loinc.org/LOINC/41144-7.html\">41144-7</a></td><td>HIV 1 Ab [Presence] in Saliva (oral fluid)</td><td/></tr><tr><td><a href=\"http://details.loinc.org/LOINC/41145-4.html\">41145-4</a></td><td>HIV 1 Ab [Presence] in Capillary blood</td><td/></tr><tr><td><a href=\"http://details.loinc.org/LOINC/41290-8.html\">41290-8</a></td><td>HIV 1+2 IgM Ab [Units/volume] in Serum or Plasma by Immunoassay</td><td/></tr><tr><td><a href=\"http://details.loinc.org/LOINC/42339-2.html\">42339-2</a></td><td>HIV 1 p24 Ag [Mass/volume] in Serum or Plasma by Immunoassay</td><td/></tr><tr><td><a href=\"http://details.loinc.org/LOINC/42600-7.html\">42600-7</a></td><td>HIV 1+2 Ab [Presence] in Unspecified specimen by Immunoassay</td><td/></tr><tr><td><a href=\"http://details.loinc.org/LOINC/42627-0.html\">42627-0</a></td><td>HIV 1 Ab [Presence] in Cerebral spinal fluid by Immunofluorescence</td><td/></tr><tr><td><a href=\"http://details.loinc.org/LOINC/42768-2.html\">42768-2</a></td><td>HIV 1 and 2 Ab [Interpretation] in Serum Narrative</td><td/></tr><tr><td><a href=\"http://details.loinc.org/LOINC/43008-2.html\">43008-2</a></td><td>HIV 1+2 IgM Ab [Units/volume] in Serum</td><td/></tr><tr><td><a href=\"http://details.loinc.org/LOINC/43009-0.html\">43009-0</a></td><td>HIV 1+2 IgG Ab [Presence] in Serum</td><td/></tr><tr><td><a href=\"http://details.loinc.org/LOINC/43010-8.html\">43010-8</a></td><td>HIV 1+2 Ab [Presence] in Unspecified specimen</td><td/></tr><tr><td><a href=\"http://details.loinc.org/LOINC/43011-6.html\">43011-6</a></td><td>HIV 1 p24 Ab [Presence] in Serum</td><td/></tr><tr><td><a href=\"http://details.loinc.org/LOINC/43012-4.html\">43012-4</a></td><td>HIV 1 gp41 Ab [Presence] in Serum</td><td/></tr><tr><td><a href=\"http://details.loinc.org/LOINC/43013-2.html\">43013-2</a></td><td>HIV 1 gp120+gp160 Ab [Presence] in Serum</td><td/></tr><tr><td><a href=\"http://details.loinc.org/LOINC/43185-8.html\">43185-8</a></td><td>HIV 1 and 2 Ab band pattern [Interpretation] in Serum by Immunoblot</td><td/></tr><tr><td><a href=\"http://details.loinc.org/LOINC/43599-0.html\">43599-0</a></td><td>HIV 1 Ab [Units/volume] in Serum by Immunofluorescence</td><td/></tr><tr><td><a href=\"http://details.loinc.org/LOINC/44531-2.html\">44531-2</a></td><td>HIV 1 Ag [Presence] in Serum from Donor</td><td/></tr><tr><td><a href=\"http://details.loinc.org/LOINC/44532-0.html\">44532-0</a></td><td>HIV 1 gp120 Ab [Presence] in Serum</td><td/></tr><tr><td><a href=\"http://details.loinc.org/LOINC/44533-8.html\">44533-8</a></td><td>HIV 1+2 Ab [Presence] in Serum from Donor</td><td/></tr><tr><td><a href=\"http://details.loinc.org/LOINC/44607-0.html\">44607-0</a></td><td>HIV 1 [Interpretation] in Serum or Plasma by Immunoassay</td><td/></tr><tr><td><a href=\"http://details.loinc.org/LOINC/44872-0.html\">44872-0</a></td><td>HIV 1 p24 Ag [Presence] in Serum or Plasma from Donor by Immunoassay</td><td/></tr><tr><td><a href=\"http://details.loinc.org/LOINC/44873-8.html\">44873-8</a></td><td>HIV 1+2 Ab [Presence] in Serum by Immunoblot</td><td/></tr><tr><td><a href=\"http://details.loinc.org/LOINC/45212-8.html\">45212-8</a></td><td>HIV 2 p31+p34 Ab [Presence] in Serum by Immunoblot</td><td/></tr><tr><td><a href=\"http://details.loinc.org/LOINC/47029-4.html\">47029-4</a></td><td>HIV 2 Ab [Presence] in Cerebral spinal fluid by Immunoblot</td><td/></tr><tr><td><a href=\"http://details.loinc.org/LOINC/48345-3.html\">48345-3</a></td><td>HIV 1+O+2 Ab [Presence] in Serum or Plasma</td><td/></tr><tr><td><a href=\"http://details.loinc.org/LOINC/48346-1.html\">48346-1</a></td><td>HIV 1+O+2 Ab [Units/volume] in Serum or Plasma</td><td/></tr><tr><td><a href=\"http://details.loinc.org/LOINC/49483-1.html\">49483-1</a></td><td>HIV 1 [Interpretation] in Serum or Plasma by Immunoassay Narrative</td><td/></tr><tr><td><a href=\"http://details.loinc.org/LOINC/49580-4.html\">49580-4</a></td><td>HIV 1+2 Ab [Presence] in Unspecified specimen by Rapid immunoassay</td><td/></tr><tr><td><a href=\"http://details.loinc.org/LOINC/49718-0.html\">49718-0</a></td><td>HIV 1 p24 Ag [Presence] in Cerebral spinal fluid</td><td/></tr><tr><td><a href=\"http://details.loinc.org/LOINC/49905-3.html\">49905-3</a></td><td>HIV 1 Ab [Presence] in Unspecified specimen by Rapid immunoassay</td><td/></tr><tr><td><a href=\"http://details.loinc.org/LOINC/49965-7.html\">49965-7</a></td><td>Deprecated HIV 1 Ab/HIV 2 Ab Ab [Ratio] in Serum by Immunoblot (IB)</td><td/></tr><tr><td><a href=\"http://details.loinc.org/LOINC/51786-2.html\">51786-2</a></td><td>HIV 2 Ab Signal/Cutoff in Serum or Plasma by Immunoassay</td><td/></tr><tr><td><a href=\"http://details.loinc.org/LOINC/51866-2.html\">51866-2</a></td><td>Deprecated HIV 1 Ab+Ag [Presence] in Serum</td><td/></tr><tr><td><a href=\"http://details.loinc.org/LOINC/5220-9.html\">5220-9</a></td><td>HIV 1 Ab [Units/volume] in Serum or Plasma by Immunoassay</td><td/></tr><tr><td><a href=\"http://details.loinc.org/LOINC/5221-7.html\">5221-7</a></td><td>HIV 1 Ab [Presence] in Serum or Plasma by Immunoblot</td><td/></tr><tr><td><a href=\"http://details.loinc.org/LOINC/5222-5.html\">5222-5</a></td><td>HIV 1 Ag [Presence] in Serum or Plasma by Immunoassay</td><td/></tr><tr><td><a href=\"http://details.loinc.org/LOINC/5223-3.html\">5223-3</a></td><td>HIV 1+2 Ab [Units/volume] in Serum or Plasma by Immunoassay</td><td/></tr><tr><td><a href=\"http://details.loinc.org/LOINC/5224-1.html\">5224-1</a></td><td>HIV 2 Ab [Units/volume] in Serum or Plasma by Immunoassay</td><td/></tr><tr><td><a href=\"http://details.loinc.org/LOINC/5225-8.html\">5225-8</a></td><td>HIV 2 Ab [Presence] in Serum by Immunoblot</td><td/></tr><tr><td><a href=\"http://details.loinc.org/LOINC/53379-4.html\">53379-4</a></td><td>HIV 1 Ab [Presence] in Unspecified specimen</td><td/></tr><tr><td><a href=\"http://details.loinc.org/LOINC/53601-1.html\">53601-1</a></td><td>HIV 1 p24 Ag [Units/volume] in Serum or Plasma by Immunoassay</td><td/></tr><tr><td><a href=\"http://details.loinc.org/LOINC/54086-4.html\">54086-4</a></td><td>HIV 1+2 IgG Ab [Presence] in DBS</td><td/></tr><tr><td><a href=\"http://details.loinc.org/LOINC/56888-1.html\">56888-1</a></td><td>HIV 1+2 Ab+HIV1 p24 Ag [Presence] in Serum or Plasma by Immunoassay</td><td/></tr><tr><td><a href=\"http://details.loinc.org/LOINC/57974-8.html\">57974-8</a></td><td>HIV 1 Ab [Presence] in Cerebral spinal fluid by Immunoblot</td><td/></tr><tr><td><a href=\"http://details.loinc.org/LOINC/57975-5.html\">57975-5</a></td><td>HIV 1+O+2 Ab [Presence] in Body fluid</td><td/></tr><tr><td><a href=\"http://details.loinc.org/LOINC/57976-3.html\">57976-3</a></td><td>HIV 2 gp140 Ab [Presence] in Serum by Immunoblot</td><td/></tr><tr><td><a href=\"http://details.loinc.org/LOINC/57977-1.html\">57977-1</a></td><td>HIV 2 p16 Ab [Presence] in Serum by Immunoblot</td><td/></tr><tr><td><a href=\"http://details.loinc.org/LOINC/57978-9.html\">57978-9</a></td><td>HIV 2 p34 Ab [Presence] in Serum by Immunoblot</td><td/></tr><tr><td><a href=\"http://details.loinc.org/LOINC/58900-2.html\">58900-2</a></td><td>HIV 1+2 Ab+HIV1 p24 Ag [Units/volume] in Serum or Plasma by Immunoassay</td><td/></tr><tr><td><a href=\"http://details.loinc.org/LOINC/62456-9.html\">62456-9</a></td><td>HIV 2 p15 Ab [Presence] in Serum by Immunoblot</td><td/></tr><tr><td><a href=\"http://details.loinc.org/LOINC/68961-2.html\">68961-2</a></td><td>HIV 1 Ab [Presence] in Serum, Plasma or Blood by Rapid immunoassay</td><td/></tr><tr><td><a href=\"http://details.loinc.org/LOINC/69668-2.html\">69668-2</a></td><td>HIV 1 and 2 Ab [Identifier] in Serum or Plasma by Rapid immunoassay</td><td/></tr><tr><td><a href=\"http://details.loinc.org/LOINC/73905-2.html\">73905-2</a></td><td>HIV 1+2 IgG Ab [Presence] in Serum or Plasma by Rapid immunoassay</td><td/></tr><tr><td><a href=\"http://details.loinc.org/LOINC/73906-0.html\">73906-0</a></td><td>HIV 1+2 IgG Ab [Presence] in Blood by Rapid immunoassay</td><td/></tr><tr><td><a href=\"http://details.loinc.org/LOINC/75622-1.html\">75622-1</a></td><td>HIV 1 and 2 tests - Meaningful Use set</td><td/></tr><tr><td><a href=\"http://details.loinc.org/LOINC/75666-8.html\">75666-8</a></td><td>HIV 1+2 Ab and HIV1 p24 Ag [Identifier] in Serum, Plasma or Blood by Rapid immunoassay</td><td/></tr><tr><td><a href=\"http://details.loinc.org/LOINC/77685-6.html\">77685-6</a></td><td>HIV 1 and 2 IgG Ab [Identifier] in Serum or Plasma by Immunoblot</td><td/></tr><tr><td><a href=\"http://details.loinc.org/LOINC/7917-8.html\">7917-8</a></td><td>HIV 1 Ab [Presence] in Serum</td><td/></tr><tr><td><a href=\"http://details.loinc.org/LOINC/7918-6.html\">7918-6</a></td><td>HIV 1+2 Ab [Presence] in Serum</td><td/></tr><tr><td><a href=\"http://details.loinc.org/LOINC/7919-4.html\">7919-4</a></td><td>HIV 2 Ab [Presence] in Serum</td><td/></tr><tr><td><a href=\"http://details.loinc.org/LOINC/80203-3.html\">80203-3</a></td><td>HIV 1 and 2 Ab [Identifier] in Serum, Plasma or Blood by Rapid immunoassay</td><td/></tr><tr><td><a href=\"http://details.loinc.org/LOINC/80387-4.html\">80387-4</a></td><td>HIV 1+2 Ab [Presence] in Serum, Plasma or Blood by Rapid immunoassay</td><td/></tr><tr><td><a href=\"http://details.loinc.org/LOINC/81641-3.html\">81641-3</a></td><td>HIV 2 Ab [Presence] in Serum, Plasma or Blood by Rapid immunoassay</td><td/></tr><tr><td><a href=\"http://details.loinc.org/LOINC/83101-6.html\">83101-6</a></td><td>HIV 1+2 Ab and HIV1 p24 Ag panel - Serum or Plasma by Immunoassay</td><td/></tr><tr><td><a href=\"http://details.loinc.org/LOINC/85037-0.html\">85037-0</a></td><td>HIV 1 and 2 Ab and HIV 1 p24 Ag panel - Serum or Plasma by Immunoassay</td><td/></tr><tr><td><a href=\"http://details.loinc.org/LOINC/85686-4.html\">85686-4</a></td><td>HIV 1 Ab [Presence] in Serum, Plasma or Blood by Immunofluorescence</td><td/></tr><tr><td><a href=\"http://details.loinc.org/LOINC/86233-4.html\">86233-4</a></td><td>HIV 1 Ab [Presence] in Serum, Plasma or Blood by Immunoblot</td><td/></tr><tr><td><a href=\"http://details.loinc.org/LOINC/86657-4.html\">86657-4</a></td><td>HIV 1 and 2 tests - FPAR 2.0 set</td><td/></tr><tr><td><a href=\"http://details.loinc.org/LOINC/89365-1.html\">89365-1</a></td><td>HIV 1 and 2 Ab panel - Serum, Plasma or Blood by Rapid immunoassay</td><td/></tr><tr><td><a href=\"http://details.loinc.org/LOINC/89374-3.html\">89374-3</a></td><td>HIV 1 Ab [Presence] in Unspecified specimen by Immunoassay</td><td/></tr><tr><td><a href=\"http://details.loinc.org/LOINC/9660-2.html\">9660-2</a></td><td>HIV 1 gp160 Ab [Presence] in Serum by Immunoblot</td><td/></tr><tr><td><a href=\"http://details.loinc.org/LOINC/9661-0.html\">9661-0</a></td><td>HIV 1 gp120 Ab [Presence] in Serum by Immunoblot</td><td/></tr><tr><td><a href=\"http://details.loinc.org/LOINC/9662-8.html\">9662-8</a></td><td>HIV 1 gp41 Ab [Presence] in Serum by Immunoblot</td><td/></tr><tr><td><a href=\"http://details.loinc.org/LOINC/9663-6.html\">9663-6</a></td><td>HIV 1 p17 Ab [Presence] in Serum by Immunoblot</td><td/></tr><tr><td><a href=\"http://details.loinc.org/LOINC/9664-4.html\">9664-4</a></td><td>HIV 1 p24 Ab [Presence] in Serum by Immunoblot</td><td/></tr><tr><td><a href=\"http://details.loinc.org/LOINC/9665-1.html\">9665-1</a></td><td>HIV 1 p24 Ag [Units/volume] in Serum</td><td/></tr><tr><td><a href=\"http://details.loinc.org/LOINC/9666-9.html\">9666-9</a></td><td>HIV 1 p31 Ab [Presence] in Serum by Immunoblot</td><td/></tr><tr><td><a href=\"http://details.loinc.org/LOINC/9667-7.html\">9667-7</a></td><td>HIV 1 p51 Ab [Presence] in Serum by Immunoblot</td><td/></tr><tr><td><a href=\"http://details.loinc.org/LOINC/9668-5.html\">9668-5</a></td><td>HIV 1 p55 Ab [Presence] in Serum by Immunoblot</td><td/></tr><tr><td><a href=\"http://details.loinc.org/LOINC/9669-3.html\">9669-3</a></td><td>HIV 1 p66 Ab [Presence] in Serum by Immunoblot</td><td/></tr><tr><td><a href=\"http://details.loinc.org/LOINC/9821-0.html\">9821-0</a></td><td>HIV 1 p24 Ag [Presence] in Serum</td><td/></tr></table></li></ul></div>"
        },
        "url": "http://cts.nlm.nih.gov/fhir/ValueSet/2.16.840.1.113762.1.4.1056.50",
        "version": "20190302",
        "name": "Human Immunodeficiency Virus (HIV) Laboratory Test Codes (Ab and Ag)",
        "status": "active",
        "date": "2019-03-02T01:00:10-05:00",
        "publisher": "Mathematica",
        "compose": {
          "include": [
            {
              "system": "http://loinc.org",
              "concept": [
                {
                  "code": "10901-7",
                  "display": "HIV 2 gp125 Ab [Presence] in Serum by Immunoblot"
                },
                {
                  "code": "10902-5",
                  "display": "HIV 2 gp36 Ab [Presence] in Serum by Immunoblot"
                },
                {
                  "code": "11078-3",
                  "display": "HIV 2 gp80 Ab [Presence] in Serum by Immunoblot"
                },
                {
                  "code": "11079-1",
                  "display": "HIV 2 p26 Ab [Presence] in Serum by Immunoblot"
                },
                {
                  "code": "11080-9",
                  "display": "HIV 2 p53 Ab [Presence] in Serum by Immunoblot"
                },
                {
                  "code": "11081-7",
                  "display": "HIV 2 p56 Ab [Presence] in Serum by Immunoblot"
                },
                {
                  "code": "11082-5",
                  "display": "HIV 2 p68 Ab [Presence] in Serum by Immunoblot"
                },
                {
                  "code": "12855-3",
                  "display": "HIV 1 p23 Ab [Presence] in Serum by Immunoblot"
                },
                {
                  "code": "12856-1",
                  "display": "HIV 1 p65 Ab [Presence] in Serum by Immunoblot"
                },
                {
                  "code": "12857-9",
                  "display": "HIV 1 p28 Ab [Presence] in Serum by Immunoblot"
                },
                {
                  "code": "12858-7",
                  "display": "HIV 1 p32 Ab [Presence] in Serum by Immunoblot"
                },
                {
                  "code": "12859-5",
                  "display": "HIV 1 p18 Ab [Presence] in Serum by Immunoblot"
                },
                {
                  "code": "12870-2",
                  "display": "HIV 1 gp34 Ab [Presence] in Serum by Immunoblot"
                },
                {
                  "code": "12871-0",
                  "display": "HIV 1 p26 Ab [Presence] in Serum by Immunoblot"
                },
                {
                  "code": "12872-8",
                  "display": "HIV 1 p15 Ab [Presence] in Serum by Immunoblot"
                },
                {
                  "code": "12875-1",
                  "display": "HIV 1 p64 Ab [Presence] in Serum by Immunoblot"
                },
                {
                  "code": "12876-9",
                  "display": "HIV 1 p53 Ab [Presence] in Serum by Immunoblot"
                },
                {
                  "code": "12893-4",
                  "display": "HIV 1 gp105 Ab [Presence] in Serum by Immunoblot"
                },
                {
                  "code": "12894-2",
                  "display": "HIV 1 p68 Ab [Presence] in Serum by Immunoblot"
                },
                {
                  "code": "12895-9",
                  "display": "HIV 1 p58 Ab [Presence] in Serum by Immunoblot"
                },
                {
                  "code": "13499-9",
                  "display": "HIV 1 Ab band pattern [Interpretation] in Serum by Immunoblot"
                },
                {
                  "code": "13920-4",
                  "display": "HIV 2 p41 Ab [Presence] in Serum by Immunoblot"
                },
                {
                  "code": "14092-1",
                  "display": "HIV 1 Ab [Presence] in Serum by Immunofluorescence"
                },
                {
                  "code": "14126-7",
                  "display": "HIV 1 gp120+gp160 Ab [Presence] in Serum by Immunoblot"
                },
                {
                  "code": "16132-3",
                  "display": "HIV 1 p15+p18 Ab [Presence] in Serum by Immunoblot"
                },
                {
                  "code": "16974-8",
                  "display": "HIV 1 Ab [Presence] in Cerebral spinal fluid"
                },
                {
                  "code": "16975-5",
                  "display": "HIV 1 IgG Ab [Presence] in Serum"
                },
                {
                  "code": "16976-3",
                  "display": "HIV 1 Ag [Units/volume] in Serum"
                },
                {
                  "code": "16977-1",
                  "display": "HIV 1 Ag [Presence] in Cerebral spinal fluid"
                },
                {
                  "code": "16978-9",
                  "display": "HIV 1 p24 Ab [Units/volume] in Serum"
                },
                {
                  "code": "16979-7",
                  "display": "HIV 1 p24 Ag [Units/volume] in Cerebral spinal fluid"
                },
                {
                  "code": "18396-2",
                  "display": "HIV 1 p24 Ag [Presence] in Serum or Plasma by Immunoassay"
                },
                {
                  "code": "19110-6",
                  "display": "HIV 1 gp41+gp43 Ab [Presence] in Serum by Immunoblot"
                },
                {
                  "code": "21007-0",
                  "display": "HIV 1 Ab [Presence] in Serum from Donor"
                },
                {
                  "code": "21331-4",
                  "display": "HIV 1 p24 Ab [Titer] in Serum by Immunoblot"
                },
                {
                  "code": "21332-2",
                  "display": "HIV 1 p41 Ab [Titer] in Serum by Immunoblot"
                },
                {
                  "code": "21334-8",
                  "display": "HIV 2 gp105 Ab [Presence] in Serum by Immunoblot"
                },
                {
                  "code": "21335-5",
                  "display": "HIV 2 gp120 Ab [Presence] in Serum by Immunoblot"
                },
                {
                  "code": "21336-3",
                  "display": "HIV 2 gp15 Ab [Presence] in Serum by Immunoblot"
                },
                {
                  "code": "21337-1",
                  "display": "HIV 2 gp34 Ab [Presence] in Serum by Immunoblot"
                },
                {
                  "code": "21338-9",
                  "display": "HIV 2 p31 Ab [Presence] in Serum by Immunoblot"
                },
                {
                  "code": "21339-7",
                  "display": "HIV 2 p55 Ab [Presence] in Serum by Immunoblot"
                },
                {
                  "code": "21340-5",
                  "display": "HIV 2 p58 Ab [Presence] in Serum by Immunoblot"
                },
                {
                  "code": "22356-0",
                  "display": "HIV 1 Ab [Units/volume] in Serum"
                },
                {
                  "code": "22357-8",
                  "display": "HIV 1+2 Ab [Units/volume] in Serum"
                },
                {
                  "code": "22358-6",
                  "display": "HIV 2 Ab [Units/volume] in Serum"
                },
                {
                  "code": "24012-7",
                  "display": "HIV 1 Ag [Presence] in Serum"
                },
                {
                  "code": "28004-0",
                  "display": "HIV 1 IgG Ab [Presence] in Cerebral spinal fluid by Immunoblot"
                },
                {
                  "code": "28052-9",
                  "display": "HIV 1 Ab.IgG band pattern [Interpretation] in Cerebral spinal fluid by Immunoblot"
                },
                {
                  "code": "29327-4",
                  "display": "HIV 1 Ab [Presence] in Body fluid"
                },
                {
                  "code": "29893-5",
                  "display": "HIV 1 Ab [Presence] in Serum or Plasma by Immunoassay"
                },
                {
                  "code": "30361-0",
                  "display": "HIV 2 Ab [Presence] in Serum or Plasma by Immunoassay"
                },
                {
                  "code": "31072-2",
                  "display": "HIV 1 p41 Ab [Presence] in Serum by Immunoblot"
                },
                {
                  "code": "31073-0",
                  "display": "HIV 2 Ab band pattern [Interpretation] in Serum by Immunoblot"
                },
                {
                  "code": "31201-7",
                  "display": "HIV 1+2 Ab [Presence] in Serum or Plasma by Immunoassay"
                },
                {
                  "code": "31430-2",
                  "display": "HIV 1 IgG Ab [Presence] in Cerebral spinal fluid"
                },
                {
                  "code": "32571-2",
                  "display": "HIV 1 Ab [Presence] in Urine by Immunoblot"
                },
                {
                  "code": "32602-5",
                  "display": "HIV 1+2 Ab [Presence] in Cerebral spinal fluid"
                },
                {
                  "code": "32827-8",
                  "display": "HIV 1 p17+p18 Ab [Presence] in Serum by Immunoblot"
                },
                {
                  "code": "32842-7",
                  "display": "HIV 1 p17+p18 Ab [Presence] in Serum"
                },
                {
                  "code": "33508-3",
                  "display": "HIV 1 p65+p66 Ab [Presence] in Serum by Immunoblot"
                },
                {
                  "code": "33660-2",
                  "display": "HIV 1 p24 Ag [Presence] in Serum or Plasma by Neutralization test"
                },
                {
                  "code": "33806-1",
                  "display": "HIV 2 IgG Ab [Presence] in Serum by Immunoblot"
                },
                {
                  "code": "33807-9",
                  "display": "HIV 2 IgG Ab [Presence] in Serum"
                },
                {
                  "code": "33866-5",
                  "display": "HIV 1 Ab [Presence] in Capillary blood by Immunoassay"
                },
                {
                  "code": "34591-8",
                  "display": "HIV 1 Ab [Presence] in Body fluid by Immunoassay"
                },
                {
                  "code": "34592-6",
                  "display": "HIV 1 Ab [Presence] in Body fluid by Immunoblot"
                },
                {
                  "code": "35437-3",
                  "display": "HIV 1 Ab [Presence] in Saliva (oral fluid) by Immunoassay"
                },
                {
                  "code": "35438-1",
                  "display": "HIV 1 Ab [Units/volume] in Saliva (oral fluid) by Immunoassay"
                },
                {
                  "code": "35439-9",
                  "display": "HIV 1 Ab [Presence] in Saliva (oral fluid) by Immunoblot"
                },
                {
                  "code": "35440-7",
                  "display": "HIV 1 gp160 Ab [Presence] in Saliva (oral fluid) by Immunoblot"
                },
                {
                  "code": "35441-5",
                  "display": "HIV 1 gp120 Ab [Presence] in Saliva (oral fluid) by Immunoblot"
                },
                {
                  "code": "35442-3",
                  "display": "HIV 1 p66 Ab [Presence] in Saliva (oral fluid) by Immunoblot"
                },
                {
                  "code": "35443-1",
                  "display": "HIV 1 p65 Ab [Presence] in Saliva (oral fluid) by Immunoblot"
                },
                {
                  "code": "35444-9",
                  "display": "HIV 1 p55 Ab [Presence] in Saliva (oral fluid) by Immunoblot"
                },
                {
                  "code": "35445-6",
                  "display": "HIV 1 p51 Ab [Presence] in Saliva (oral fluid) by Immunoblot"
                },
                {
                  "code": "35446-4",
                  "display": "HIV 1 gp41 Ab [Presence] in Saliva (oral fluid) by Immunoblot"
                },
                {
                  "code": "35447-2",
                  "display": "HIV 1 p31 Ab [Presence] in Saliva (oral fluid) by Immunoblot"
                },
                {
                  "code": "35448-0",
                  "display": "HIV 1 p24 Ab [Presence] in Saliva (oral fluid) by Immunoblot"
                },
                {
                  "code": "35449-8",
                  "display": "HIV 1 p17 Ab [Presence] in Saliva (oral fluid) by Immunoblot"
                },
                {
                  "code": "35450-6",
                  "display": "HIV 1 p18 Ab [Presence] in Saliva (oral fluid) by Immunoblot"
                },
                {
                  "code": "35452-2",
                  "display": "HIV 1 gp40 Ab [Presence] in Serum by Immunoblot"
                },
                {
                  "code": "35564-4",
                  "display": "HIV 1 p31+p32 Ab [Presence] in Serum by Immunoblot"
                },
                {
                  "code": "35565-1",
                  "display": "HIV 1 p40 Ab [Presence] in Serum by Immunoblot"
                },
                {
                  "code": "40437-6",
                  "display": "HIV 1 p24 Ab [Presence] in Serum or Plasma by Immunoassay"
                },
                {
                  "code": "40438-4",
                  "display": "HIV 1 gp41 Ab [Presence] in Serum or Plasma by Immunoassay"
                },
                {
                  "code": "40439-2",
                  "display": "HIV 1 gp120+gp160 Ab [Presence] in Serum or Plasma by Immunoassay"
                },
                {
                  "code": "40732-0",
                  "display": "HIV 1 IgG Ab [Presence] in Serum by Immunoblot"
                },
                {
                  "code": "40733-8",
                  "display": "HIV 1+2 IgG Ab [Presence] in Serum or Plasma by Immunoassay"
                },
                {
                  "code": "41143-9",
                  "display": "HIV 1 Ab [Units/volume] in Saliva (oral fluid)"
                },
                {
                  "code": "41144-7",
                  "display": "HIV 1 Ab [Presence] in Saliva (oral fluid)"
                },
                {
                  "code": "41145-4",
                  "display": "HIV 1 Ab [Presence] in Capillary blood"
                },
                {
                  "code": "41290-8",
                  "display": "HIV 1+2 IgM Ab [Units/volume] in Serum or Plasma by Immunoassay"
                },
                {
                  "code": "42339-2",
                  "display": "HIV 1 p24 Ag [Mass/volume] in Serum or Plasma by Immunoassay"
                },
                {
                  "code": "42600-7",
                  "display": "HIV 1+2 Ab [Presence] in Unspecified specimen by Immunoassay"
                },
                {
                  "code": "42627-0",
                  "display": "HIV 1 Ab [Presence] in Cerebral spinal fluid by Immunofluorescence"
                },
                {
                  "code": "42768-2",
                  "display": "HIV 1 and 2 Ab [Interpretation] in Serum Narrative"
                },
                {
                  "code": "43008-2",
                  "display": "HIV 1+2 IgM Ab [Units/volume] in Serum"
                },
                {
                  "code": "43009-0",
                  "display": "HIV 1+2 IgG Ab [Presence] in Serum"
                },
                {
                  "code": "43010-8",
                  "display": "HIV 1+2 Ab [Presence] in Unspecified specimen"
                },
                {
                  "code": "43011-6",
                  "display": "HIV 1 p24 Ab [Presence] in Serum"
                },
                {
                  "code": "43012-4",
                  "display": "HIV 1 gp41 Ab [Presence] in Serum"
                },
                {
                  "code": "43013-2",
                  "display": "HIV 1 gp120+gp160 Ab [Presence] in Serum"
                },
                {
                  "code": "43185-8",
                  "display": "HIV 1 and 2 Ab band pattern [Interpretation] in Serum by Immunoblot"
                },
                {
                  "code": "43599-0",
                  "display": "HIV 1 Ab [Units/volume] in Serum by Immunofluorescence"
                },
                {
                  "code": "44531-2",
                  "display": "HIV 1 Ag [Presence] in Serum from Donor"
                },
                {
                  "code": "44532-0",
                  "display": "HIV 1 gp120 Ab [Presence] in Serum"
                },
                {
                  "code": "44533-8",
                  "display": "HIV 1+2 Ab [Presence] in Serum from Donor"
                },
                {
                  "code": "44607-0",
                  "display": "HIV 1 [Interpretation] in Serum or Plasma by Immunoassay"
                },
                {
                  "code": "44872-0",
                  "display": "HIV 1 p24 Ag [Presence] in Serum or Plasma from Donor by Immunoassay"
                },
                {
                  "code": "44873-8",
                  "display": "HIV 1+2 Ab [Presence] in Serum by Immunoblot"
                },
                {
                  "code": "45212-8",
                  "display": "HIV 2 p31+p34 Ab [Presence] in Serum by Immunoblot"
                },
                {
                  "code": "47029-4",
                  "display": "HIV 2 Ab [Presence] in Cerebral spinal fluid by Immunoblot"
                },
                {
                  "code": "48345-3",
                  "display": "HIV 1+O+2 Ab [Presence] in Serum or Plasma"
                },
                {
                  "code": "48346-1",
                  "display": "HIV 1+O+2 Ab [Units/volume] in Serum or Plasma"
                },
                {
                  "code": "49483-1",
                  "display": "HIV 1 [Interpretation] in Serum or Plasma by Immunoassay Narrative"
                },
                {
                  "code": "49580-4",
                  "display": "HIV 1+2 Ab [Presence] in Unspecified specimen by Rapid immunoassay"
                },
                {
                  "code": "49718-0",
                  "display": "HIV 1 p24 Ag [Presence] in Cerebral spinal fluid"
                },
                {
                  "code": "49905-3",
                  "display": "HIV 1 Ab [Presence] in Unspecified specimen by Rapid immunoassay"
                },
                {
                  "code": "49965-7",
                  "display": "Deprecated HIV 1 Ab/HIV 2 Ab Ab [Ratio] in Serum by Immunoblot (IB)"
                },
                {
                  "code": "51786-2",
                  "display": "HIV 2 Ab Signal/Cutoff in Serum or Plasma by Immunoassay"
                },
                {
                  "code": "51866-2",
                  "display": "Deprecated HIV 1 Ab+Ag [Presence] in Serum"
                },
                {
                  "code": "5220-9",
                  "display": "HIV 1 Ab [Units/volume] in Serum or Plasma by Immunoassay"
                },
                {
                  "code": "5221-7",
                  "display": "HIV 1 Ab [Presence] in Serum or Plasma by Immunoblot"
                },
                {
                  "code": "5222-5",
                  "display": "HIV 1 Ag [Presence] in Serum or Plasma by Immunoassay"
                },
                {
                  "code": "5223-3",
                  "display": "HIV 1+2 Ab [Units/volume] in Serum or Plasma by Immunoassay"
                },
                {
                  "code": "5224-1",
                  "display": "HIV 2 Ab [Units/volume] in Serum or Plasma by Immunoassay"
                },
                {
                  "code": "5225-8",
                  "display": "HIV 2 Ab [Presence] in Serum by Immunoblot"
                },
                {
                  "code": "53379-4",
                  "display": "HIV 1 Ab [Presence] in Unspecified specimen"
                },
                {
                  "code": "53601-1",
                  "display": "HIV 1 p24 Ag [Units/volume] in Serum or Plasma by Immunoassay"
                },
                {
                  "code": "54086-4",
                  "display": "HIV 1+2 IgG Ab [Presence] in DBS"
                },
                {
                  "code": "56888-1",
                  "display": "HIV 1+2 Ab+HIV1 p24 Ag [Presence] in Serum or Plasma by Immunoassay"
                },
                {
                  "code": "57974-8",
                  "display": "HIV 1 Ab [Presence] in Cerebral spinal fluid by Immunoblot"
                },
                {
                  "code": "57975-5",
                  "display": "HIV 1+O+2 Ab [Presence] in Body fluid"
                },
                {
                  "code": "57976-3",
                  "display": "HIV 2 gp140 Ab [Presence] in Serum by Immunoblot"
                },
                {
                  "code": "57977-1",
                  "display": "HIV 2 p16 Ab [Presence] in Serum by Immunoblot"
                },
                {
                  "code": "57978-9",
                  "display": "HIV 2 p34 Ab [Presence] in Serum by Immunoblot"
                },
                {
                  "code": "58900-2",
                  "display": "HIV 1+2 Ab+HIV1 p24 Ag [Units/volume] in Serum or Plasma by Immunoassay"
                },
                {
                  "code": "62456-9",
                  "display": "HIV 2 p15 Ab [Presence] in Serum by Immunoblot"
                },
                {
                  "code": "68961-2",
                  "display": "HIV 1 Ab [Presence] in Serum, Plasma or Blood by Rapid immunoassay"
                },
                {
                  "code": "69668-2",
                  "display": "HIV 1 and 2 Ab [Identifier] in Serum or Plasma by Rapid immunoassay"
                },
                {
                  "code": "73905-2",
                  "display": "HIV 1+2 IgG Ab [Presence] in Serum or Plasma by Rapid immunoassay"
                },
                {
                  "code": "73906-0",
                  "display": "HIV 1+2 IgG Ab [Presence] in Blood by Rapid immunoassay"
                },
                {
                  "code": "75622-1",
                  "display": "HIV 1 and 2 tests - Meaningful Use set"
                },
                {
                  "code": "75666-8",
                  "display": "HIV 1+2 Ab and HIV1 p24 Ag [Identifier] in Serum, Plasma or Blood by Rapid immunoassay"
                },
                {
                  "code": "77685-6",
                  "display": "HIV 1 and 2 IgG Ab [Identifier] in Serum or Plasma by Immunoblot"
                },
                {
                  "code": "7917-8",
                  "display": "HIV 1 Ab [Presence] in Serum"
                },
                {
                  "code": "7918-6",
                  "display": "HIV 1+2 Ab [Presence] in Serum"
                },
                {
                  "code": "7919-4",
                  "display": "HIV 2 Ab [Presence] in Serum"
                },
                {
                  "code": "80203-3",
                  "display": "HIV 1 and 2 Ab [Identifier] in Serum, Plasma or Blood by Rapid immunoassay"
                },
                {
                  "code": "80387-4",
                  "display": "HIV 1+2 Ab [Presence] in Serum, Plasma or Blood by Rapid immunoassay"
                },
                {
                  "code": "81641-3",
                  "display": "HIV 2 Ab [Presence] in Serum, Plasma or Blood by Rapid immunoassay"
                },
                {
                  "code": "83101-6",
                  "display": "HIV 1+2 Ab and HIV1 p24 Ag panel - Serum or Plasma by Immunoassay"
                },
                {
                  "code": "85037-0",
                  "display": "HIV 1 and 2 Ab and HIV 1 p24 Ag panel - Serum or Plasma by Immunoassay"
                },
                {
                  "code": "85686-4",
                  "display": "HIV 1 Ab [Presence] in Serum, Plasma or Blood by Immunofluorescence"
                },
                {
                  "code": "86233-4",
                  "display": "HIV 1 Ab [Presence] in Serum, Plasma or Blood by Immunoblot"
                },
                {
                  "code": "86657-4",
                  "display": "HIV 1 and 2 tests - FPAR 2.0 set"
                },
                {
                  "code": "89365-1",
                  "display": "HIV 1 and 2 Ab panel - Serum, Plasma or Blood by Rapid immunoassay"
                },
                {
                  "code": "89374-3",
                  "display": "HIV 1 Ab [Presence] in Unspecified specimen by Immunoassay"
                },
                {
                  "code": "9660-2",
                  "display": "HIV 1 gp160 Ab [Presence] in Serum by Immunoblot"
                },
                {
                  "code": "9661-0",
                  "display": "HIV 1 gp120 Ab [Presence] in Serum by Immunoblot"
                },
                {
                  "code": "9662-8",
                  "display": "HIV 1 gp41 Ab [Presence] in Serum by Immunoblot"
                },
                {
                  "code": "9663-6",
                  "display": "HIV 1 p17 Ab [Presence] in Serum by Immunoblot"
                },
                {
                  "code": "9664-4",
                  "display": "HIV 1 p24 Ab [Presence] in Serum by Immunoblot"
                },
                {
                  "code": "9665-1",
                  "display": "HIV 1 p24 Ag [Units/volume] in Serum"
                },
                {
                  "code": "9666-9",
                  "display": "HIV 1 p31 Ab [Presence] in Serum by Immunoblot"
                },
                {
                  "code": "9667-7",
                  "display": "HIV 1 p51 Ab [Presence] in Serum by Immunoblot"
                },
                {
                  "code": "9668-5",
                  "display": "HIV 1 p55 Ab [Presence] in Serum by Immunoblot"
                },
                {
                  "code": "9669-3",
                  "display": "HIV 1 p66 Ab [Presence] in Serum by Immunoblot"
                },
                {
                  "code": "9821-0",
                  "display": "HIV 1 p24 Ag [Presence] in Serum"
                }
              ]
            }
          ]
        }
      },
      "request": {
        "method": "PUT",
        "url": "ValueSet/2.16.840.1.113762.1.4.1056.50/_history/16"
      }
    },
    {
      "resource": {
        "resourceType": "Library",
        "id": "library-MATGlobalCommonFunctions-FHIR4-4.0.000",
        "text": {
          "status": "generated",
          "div": "<div xmlns=\"http://www.w3.org/1999/xhtml\"><table class=\"grid dict\"><tr><th scope=\"row\"><b>Id: </b></th><td style=\"padding-left: 25px; padding-right: 25px;\">library-MATGlobalCommonFunctions-FHIR4-4.0.000</td></tr><tr><th scope=\"row\"><b>Type: </b></th><td style=\"padding-right: 25px;\"> logic-library </td></tr><tr><th scope=\"row\"><b>Version: </b></th><td style=\"padding-left: 25px; padding-right: 25px;\">4.0.000</td></tr><tr><th scope=\"row\"><b>Status: </b></th><td style=\"padding-left: 25px; padding-right: 25px;\">active</td></tr><tr style=\"vertical-align: top;\"><th rowspan=\"1\" scope=\"row\"><b>Related: </b></th><td style=\"padding-left: 25px; padding-right: 25px;\"><p style=\"margin-bottom: 5px;\"><b>type: </b><span>depends-on</span></p><p style=\"margin-bottom: 5px;\"><b>Resource: </b><br/><span>Library/library-FHIRHelpers-4.0.0</span></p></td></tr><tr style=\"vertical-align: top;\"><th rowspan=\"9\" scope=\"row\"><b>Data Requirements: </b></th><td style=\"padding-left: 25px; padding-right: 25px;\"><div xmlns=\"http://www.w3.org/1999/xhtml\"><p style=\"margin-bottom: 5px;\"><b>type: </b><span>Encounter</span></p><p style=\"margin-bottom: 5px;\"><b>code filter:</b><br/><span style=\"padding-left: 25px;\"><b>path: </b><span>type</span></span><br/><span style=\"padding-left: 25px;\"><b>valueset: </b><span>http://cts.nlm.nih.gov/fhir/ValueSet/2.16.840.1.113883.3.666.5.307</span></span></p></div></td></tr><tr style=\"vertical-align: top;\"><td style=\"padding-left: 25px; padding-right: 25px;\"><div xmlns=\"http://www.w3.org/1999/xhtml\"><p style=\"margin-bottom: 5px;\"><b>type: </b><span>Encounter</span></p><p style=\"margin-bottom: 5px;\"><b>code filter:</b><br/><span style=\"padding-left: 25px;\"><b>path: </b><span>type</span></span><br/><span style=\"padding-left: 25px;\"><b>valueset: </b><span>http://cts.nlm.nih.gov/fhir/ValueSet/2.16.840.1.113883.3.117.1.7.1.292</span></span></p></div></td></tr><tr style=\"vertical-align: top;\"><td style=\"padding-left: 25px; padding-right: 25px;\"><div xmlns=\"http://www.w3.org/1999/xhtml\"><p style=\"margin-bottom: 5px;\"><b>type: </b><span>Encounter</span></p><p style=\"margin-bottom: 5px;\"><b>code filter:</b><br/><span style=\"padding-left: 25px;\"><b>path: </b><span>type</span></span><br/><span style=\"padding-left: 25px;\"><b>valueset: </b><span>http://cts.nlm.nih.gov/fhir/ValueSet/2.16.840.1.113762.1.4.1111.143</span></span></p></div></td></tr><tr style=\"vertical-align: top;\"><td style=\"padding-left: 25px; padding-right: 25px;\"><div xmlns=\"http://www.w3.org/1999/xhtml\"><p style=\"margin-bottom: 5px;\"><b>type: </b><span>Encounter</span></p><p style=\"margin-bottom: 5px;\"><b>code filter:</b><br/><span style=\"padding-left: 25px;\"><b>path: </b><span>type</span></span><br/><span style=\"padding-left: 25px;\"><b>valueset: </b><span>http://cts.nlm.nih.gov/fhir/ValueSet/2.16.840.1.113883.3.117.1.7.1.292</span></span></p></div></td></tr><tr style=\"vertical-align: top;\"><td style=\"padding-left: 25px; padding-right: 25px;\"><div xmlns=\"http://www.w3.org/1999/xhtml\"><p style=\"margin-bottom: 5px;\"><b>type: </b><span>Condition</span></p></div></td></tr><tr style=\"vertical-align: top;\"><td style=\"padding-left: 25px; padding-right: 25px;\"><div xmlns=\"http://www.w3.org/1999/xhtml\"><p style=\"margin-bottom: 5px;\"><b>type: </b><span>Condition</span></p></div></td></tr><tr style=\"vertical-align: top;\"><td style=\"padding-left: 25px; padding-right: 25px;\"><div xmlns=\"http://www.w3.org/1999/xhtml\"><p style=\"margin-bottom: 5px;\"><b>type: </b><span>Location</span></p></div></td></tr><tr style=\"vertical-align: top;\"><td style=\"padding-left: 25px; padding-right: 25px;\"><div xmlns=\"http://www.w3.org/1999/xhtml\"><p style=\"margin-bottom: 5px;\"><b>type: </b><span>Provenance</span></p><p style=\"margin-bottom: 5px;\"><b>code filter:</b><br/><span style=\"padding-left: 25px;\"><b>path: </b><span>target</span></span></p></div></td></tr><tr style=\"vertical-align: top;\"><td style=\"padding-left: 25px; padding-right: 25px;\"><div xmlns=\"http://www.w3.org/1999/xhtml\"><p style=\"margin-bottom: 5px;\"><b>type: </b><span>Medication</span></p></div></td></tr><tr style=\"vertical-align: top;\"><th scope=\"row\"><b>Content: </b></th><td style=\"padding-left: 25px; padding-right: 25px;\"><b>type: </b><span>text/cql</span></td></tr><tr><td colspan=\"2\" style=\"padding-left: 25px; padding-right: 25px;\"><pre><code class=\"language-cql\">library MATGlobalCommonFunctions_FHIR4 version '4.0.000'\n\nusing FHIR version '4.0.0'\n\ninclude FHIRHelpers version '4.0.0' called FHIRHelpers\n\ncodesystem &quot;LOINC&quot;: 'http://loinc.org'\ncodesystem &quot;SNOMEDCT&quot;: 'http://snomed.info/sct/731000124108'\ncodesystem &quot;RoleCode&quot;: 'http://hl7.org/fhir/v3/RoleCode'\ncodesystem &quot;Diagnosis Role&quot;: 'http://terminology.hl7.org/CodeSystem/diagnosis-role'\ncodesystem &quot;RequestIntent&quot;: 'http://terminology.hl7.org/CodeSystem/request-intent'\ncodesystem &quot;MedicationRequestCategory&quot;: 'http://terminology.hl7.org/CodeSystem/medicationrequest-category'\ncodesystem &quot;ConditionClinicalStatusCodes&quot;: 'http://terminology.hl7.org/CodeSystem/condition-clinical'\ncodesystem &quot;ConditionVerificationStatusCodes&quot;: 'http://terminology.hl7.org/CodeSystem/condition-verification'\ncodesystem &quot;AllergyIntoleranceClinicalStatusCodes&quot;: 'http://terminology.hl7.org/CodeSystem/allergyintolerance-clinical'\ncodesystem &quot;AllergyIntoleranceVerificationStatusCodes&quot;: 'http://terminology.hl7.org/CodeSystem/allergyintolerance-verification'\n\nvalueset &quot;Encounter Inpatient&quot;: 'http://cts.nlm.nih.gov/fhir/ValueSet/2.16.840.1.113883.3.666.5.307'\nvalueset &quot;Emergency Department Visit&quot;: 'http://cts.nlm.nih.gov/fhir/ValueSet/2.16.840.1.113883.3.117.1.7.1.292'\nvalueset &quot;Observation Services&quot;: 'http://cts.nlm.nih.gov/fhir/ValueSet/2.16.840.1.113762.1.4.1111.143'\n\ncode &quot;Birthdate&quot;: '21112-8' from &quot;LOINC&quot; display 'Birth date'\ncode &quot;Dead&quot;: '419099009' from &quot;SNOMEDCT&quot; display 'Dead'\ncode &quot;ER&quot;: 'ER' from &quot;RoleCode&quot; display 'Emergency room'\ncode &quot;ICU&quot;: 'ICU' from &quot;RoleCode&quot; display 'Intensive care unit'\ncode &quot;Billing&quot;: 'billing' from &quot;Diagnosis Role&quot; display 'Billing'\n\n// Condition Clinical Status Codes - Consider value sets for these\ncode &quot;active&quot;: 'active' from &quot;ConditionClinicalStatusCodes&quot;\ncode &quot;recurrence&quot;: 'recurrence' from &quot;ConditionClinicalStatusCodes&quot;\ncode &quot;relapse&quot;: 'relapse' from &quot;ConditionClinicalStatusCodes&quot;\ncode &quot;inactive&quot;: 'inactive' from &quot;ConditionClinicalStatusCodes&quot;\ncode &quot;remission&quot;: 'remission' from &quot;ConditionClinicalStatusCodes&quot;\ncode &quot;resolved&quot;: 'resolved' from &quot;ConditionClinicalStatusCodes&quot;\n\n// Condition Verification Status Codes - Consider value sets for these\ncode &quot;unconfirmed&quot;: 'unconfirmed' from ConditionVerificationStatusCodes\ncode &quot;provisional&quot;: 'provisional' from ConditionVerificationStatusCodes\ncode &quot;differential&quot;: 'differential' from ConditionVerificationStatusCodes\ncode &quot;confirmed&quot;: 'confirmed' from ConditionVerificationStatusCodes\ncode &quot;refuted&quot;: 'refuted' from ConditionVerificationStatusCodes\ncode &quot;entered-in-error&quot;: 'entered-in-error' from ConditionVerificationStatusCodes\n\ncode &quot;allergy-active&quot;: 'active' from &quot;AllergyIntoleranceClinicalStatusCodes&quot;\ncode &quot;allergy-inactive&quot;: 'inactive' from &quot;AllergyIntoleranceClinicalStatusCodes&quot;\ncode &quot;allergy-resolved&quot;: 'resolved' from &quot;AllergyIntoleranceClinicalStatusCodes&quot;\n\n// Allergy/Intolerance Verification Status Codes - Consider value sets for these\ncode &quot;allergy-unconfirmed&quot;: 'unconfirmed' from AllergyIntoleranceVerificationStatusCodes\ncode &quot;allergy-confirmed&quot;: 'confirmed' from AllergyIntoleranceVerificationStatusCodes\ncode &quot;allergy-refuted&quot;: 'refuted' from AllergyIntoleranceVerificationStatusCodes\n\n// MedicationRequest Category Codes\ncode &quot;Community&quot;: 'community' from &quot;MedicationRequestCategory&quot; display 'Community'\ncode &quot;Discharge&quot;: 'discharge' from &quot;MedicationRequestCategory&quot; display 'Discharge'\n\nparameter &quot;Measurement Period&quot; Interval&lt;DateTime&gt;\n  default Interval[@2019-01-01T00:00:00.0, @2020-01-01T00:00:00.0)\n\ncontext Patient\n\ndefine &quot;Inpatient Encounter&quot;:\n\t[Encounter: &quot;Encounter Inpatient&quot;] EncounterInpatient\n\t\twhere EncounterInpatient.status = 'finished'\n\t\t    and &quot;LengthInDays&quot;(EncounterInpatient.period) &lt;= 120\n\t\t\tand EncounterInpatient.period ends during &quot;Measurement Period&quot;\n\ndefine function &quot;ToDate&quot;(Value DateTime):\n\tDateTime(year from Value, month from Value, day from Value, 0, 0, 0, 0, timezone from Value)\n\ndefine function &quot;CalendarAgeInDaysAt&quot;(BirthDateTime DateTime, AsOf DateTime):\n\tdays between ToDate(BirthDateTime)and ToDate(AsOf)\n\ndefine function &quot;CalendarAgeInDays&quot;(BirthDateTime DateTime):\n\tCalendarAgeInDaysAt(BirthDateTime, Today())\n\ndefine function &quot;CalendarAgeInMonthsAt&quot;(BirthDateTime DateTime, AsOf DateTime):\n\tmonths between ToDate(BirthDateTime)and ToDate(AsOf)\n\ndefine function &quot;CalendarAgeInMonths&quot;(BirthDateTime DateTime):\n\tCalendarAgeInMonthsAt(BirthDateTime, Today())\n\ndefine function &quot;CalendarAgeInYearsAt&quot;(BirthDateTime DateTime, AsOf DateTime):\n\tyears between ToDate(BirthDateTime)and ToDate(AsOf)\n\ndefine function &quot;CalendarAgeInYears&quot;(BirthDateTime DateTime):\n\tCalendarAgeInYearsAt(BirthDateTime, Today())\n\ndefine function &quot;LengthInDays&quot;(Value Interval&lt;DateTime&gt;):\n\tdifference in days between start of Value and end of Value\n\ndefine function &quot;ED Visit&quot;(TheEncounter FHIR.Encounter):\n    singleton from (\n        [Encounter: &quot;Emergency Department Visit&quot;] EDVisit\n            where EDVisit.status = 'finished'\n                and EDVisit.period ends 1 hour or less on or before start of FHIRHelpers.ToInterval(TheEncounter.period)\n    )\n\ndefine function &quot;Hospitalization&quot;(TheEncounter FHIR.Encounter):\n\t( &quot;ED Visit&quot;(TheEncounter) ) X\n    return\n        if X is null then TheEncounter.period\n        else Interval[start of FHIRHelpers.ToInterval(X.period), end of FHIRHelpers.ToInterval(TheEncounter.period)]\n\ndefine function &quot;Hospitalization Locations&quot;(TheEncounter FHIR.Encounter):\n\t( &quot;ED Visit&quot;(TheEncounter) ) EDEncounter\n    return\n        if EDEncounter is null then TheEncounter.location\n        else flatten { EDEncounter.location, TheEncounter.location }\n\ndefine function &quot;Hospitalization Length of Stay&quot;(TheEncounter FHIR.Encounter):\n\tLengthInDays(&quot;Hospitalization&quot;(TheEncounter))\n\ndefine function &quot;Hospital Admission Time&quot;(TheEncounter FHIR.Encounter):\n\tstart of &quot;Hospitalization&quot;(TheEncounter)\n\ndefine function &quot;Hospital Discharge Time&quot;(TheEncounter FHIR.Encounter):\n\tend of FHIRHelpers.ToInterval(TheEncounter.period)\n\ndefine function &quot;Hospital Arrival Time&quot;(TheEncounter FHIR.Encounter):\n\tstart of FHIRHelpers.ToInterval(First(\n\t    ( &quot;Hospitalization Locations&quot;(TheEncounter) ) HospitalLocation\n\t\t\tsort by start of FHIRHelpers.ToInterval(period)\n\t).period)\n\ndefine function &quot;HospitalizationWithObservation&quot;(TheEncounter FHIR.Encounter):\n\tTheEncounter Visit\n\t\tlet ObsVisit: Last([Encounter: &quot;Observation Services&quot;] LastObs\n\t\t\t\twhere LastObs.period ends 1 hour or less on or before start of Visit.period\n\t\t\t\tsort by end of period\n\t\t\t),\n\t\t\tVisitStart: Coalesce(start of ObsVisit.period, start of Visit.period),\n\t\t\tEDVisit: Last([Encounter: &quot;Emergency Department Visit&quot;] LastED\n\t\t\t\twhere LastED.period ends 1 hour or less on or before VisitStart\n\t\t\t\tsort by end of period\n\t\t\t)\n\t\treturn Interval[Coalesce(start of EDVisit.period, VisitStart), end of Visit.period]\n\ndefine function &quot;HospitalizationWithObservationLengthofStay&quot;(Encounter FHIR.Encounter):\n\t&quot;LengthInDays&quot;(&quot;HospitalizationWithObservation&quot;(Encounter))\n\n// TODO - fix these (must fetch Location resources and compare id to reference)\n/*define function &quot;Hospital Departure Time&quot;(TheEncounter FHIR.Encounter):\n\tend of FHIRHelpers.ToInterval(Last(\n\t    ( &quot;Hospitalization Locations&quot;(TheEncounter) ) HospitalLocation\n\t\t\tsort by start of FHIRHelpers.ToInterval(period)\n\t).period)\n\ndefine function &quot;Emergency Department Arrival Time&quot;(TheEncounter FHIR.Encounter):\n\tstart of FHIRHelpers.ToInterval((\n\t    singleton from (\n\t        ( &quot;Hospitalization Locations&quot;(TheEncounter) ) HospitalLocation\n\t\t\t\twhere HospitalLocation.type ~ &quot;ER&quot;\n\t\t)\n\t).period)\n\ndefine function &quot;First Inpatient Intensive Care Unit&quot;(TheEncounter FHIR.Encounter):\n\tFirst(\n\t    ( TheEncounter.location ) HospitalLocation\n\t\t\twhere HospitalLocation.type ~ &quot;ICU&quot;\n\t\t\t\tand HospitalLocation.period during TheEncounter.period\n\t\t\tsort by start of FHIRHelpers.ToInterval(period)\n\t)*/\n\n/*\n*\n*    CQFMeasures Common Logic\n*\n*/\n\ndefine function &quot;Normalize Onset&quot;(onset Choice&lt;FHIR.dateTime, FHIR.Age, FHIR.Period, FHIR.Range, FHIR.string&gt;):\n  if onset is FHIR.dateTime then\n\t  Interval[FHIRHelpers.ToDateTime(onset as FHIR.dateTime), FHIRHelpers.ToDateTime(onset as FHIR.dateTime)]\n\telse if onset is FHIR.Period then\n\t  FHIRHelpers.ToInterval(onset as FHIR.Period)\n\telse if onset is FHIR.string then\n    Message(null as Interval&lt;DateTime&gt;, true, '1', 'Error', 'Cannot compute an interval from a String value')\n\telse if onset is FHIR.Age then\n\t  Interval[FHIRHelpers.ToDate(Patient.birthDate) + FHIRHelpers.ToQuantity(onset as FHIR.Age),\n\t\t  FHIRHelpers.ToDate(Patient.birthDate) + FHIRHelpers.ToQuantity(onset as FHIR.Age) + 1 year)\n\telse if onset is FHIR.Range then\n\t  Interval[FHIRHelpers.ToDate(Patient.birthDate) + FHIRHelpers.ToQuantity((onset as FHIR.Range).low),\n\t\t  FHIRHelpers.ToDate(Patient.birthDate) + FHIRHelpers.ToQuantity((onset as FHIR.Range).high) + 1 year)\n\telse null\n\ndefine function &quot;Normalize Abatement&quot;(condition Condition):\n\tif condition.abatement is FHIR.dateTime then\n\t  Interval[FHIRHelpers.ToDateTime(condition.abatement as FHIR.dateTime), FHIRHelpers.ToDateTime(condition.abatement as FHIR.dateTime)]\n\telse if condition.abatement is FHIR.Period then\n\t  FHIRHelpers.ToInterval(condition.abatement as FHIR.Period)\n\telse if condition.abatement is FHIR.string then\n    Message(null as Interval&lt;DateTime&gt;, true, '1', 'Error', 'Cannot compute an interval from a String value')\n\telse if condition.abatement is FHIR.Age then\n\t\tInterval[FHIRHelpers.ToDate(Patient.birthDate) + FHIRHelpers.ToQuantity(condition.abatement as FHIR.Age),\n\t\t\tFHIRHelpers.ToDate(Patient.birthDate) + FHIRHelpers.ToQuantity(condition.abatement as FHIR.Age) + 1 year)\n\telse if condition.abatement is FHIR.Range then\n\t  Interval[FHIRHelpers.ToDate(Patient.birthDate) + FHIRHelpers.ToQuantity((condition.abatement as FHIR.Range).low),\n\t\t  FHIRHelpers.ToDate(Patient.birthDate) + FHIRHelpers.ToQuantity((condition.abatement as FHIR.Range).high) + 1 year)\n\telse if condition.abatement is FHIR.boolean then\n\t  Interval[end of &quot;Normalize Onset&quot;(condition.onset), condition.recordedDate)\n\telse null\n\ndefine function &quot;Prevalence Period&quot;(condition Condition):\n  Interval[start of &quot;Normalize Onset&quot;(condition.onset), end of &quot;Normalize Abatement&quot;(condition))\n\ndefine function &quot;Normalize Interval&quot;(choice Choice&lt;FHIR.dateTime, FHIR.Period, FHIR.Timing, FHIR.instant, FHIR.string, FHIR.Age, FHIR.Range&gt;):\n  case\n\t  when choice is FHIR.dateTime then\n    \tInterval[FHIRHelpers.ToDateTime(choice as FHIR.dateTime), FHIRHelpers.ToDateTime(choice as FHIR.dateTime)]\n\t\twhen choice is FHIR.Period then\n  \t\tFHIRHelpers.ToInterval(choice as FHIR.Period)\n\t\twhen choice is FHIR.instant then\n\t\t\tInterval[FHIRHelpers.ToDateTime(choice as FHIR.instant), FHIRHelpers.ToDateTime(choice as FHIR.instant)]\n\t\twhen choice is FHIR.Age then\n\t\t  Interval[FHIRHelpers.ToDate(Patient.birthDate) + FHIRHelpers.ToQuantity(choice as FHIR.Age),\n\t\t\t  FHIRHelpers.ToDate(Patient.birthDate) + FHIRHelpers.ToQuantity(choice as FHIR.Age) + 1 year)\n\t\twhen choice is FHIR.Range then\n\t\t  Interval[FHIRHelpers.ToDate(Patient.birthDate) + FHIRHelpers.ToQuantity((choice as FHIR.Range).low),\n\t\t\t  FHIRHelpers.ToDate(Patient.birthDate) + FHIRHelpers.ToQuantity((choice as FHIR.Range).high) + 1 year)\n\t\twhen choice is FHIR.Timing then\n\t\t  Message(null as Interval&lt;DateTime&gt;, true, '1', 'Error', 'Cannot compute a single interval from a Timing type')\n    when choice is FHIR.string then\n      Message(null as Interval&lt;DateTime&gt;, true, '1', 'Error', 'Cannot compute an interval from a String value')\n\t\telse\n\t\t\tnull as Interval&lt;DateTime&gt;\n\tend\n\ndefine function &quot;GetId&quot;(uri String):\n\tLast(Split(uri, '/'))\n\n\ndefine function &quot;EncounterDiagnosis&quot;(Encounter Encounter):\n  Encounter.diagnosis D\n    return singleton from ([Condition] C where C.id = &quot;GetId&quot;(D.condition.reference))\n\n// Returns the condition that is specified as the principal diagnosis for the encounter\n// TODO: BTR 2019-07-30: Shouldn't need the FHIRHelpers reference here, investigate\ndefine function &quot;PrincipalDiagnosis&quot;(Encounter Encounter):\n\t(singleton from (Encounter.diagnosis D where FHIRHelpers.ToInteger(D.rank) = 1)) PD\n\t\treturn singleton from ([Condition] C where C.id = &quot;GetId&quot;(PD.condition.reference))\n\n// Returns the location for the given location reference\ndefine function GetLocation(reference Reference):\n  singleton from (\n    [Location] L where L.id = GetId(reference.reference)\n  )\n\n/*\nNOTE: Extensions are not the preferred approach, but are used as a way to access\ncontent that is defined by extensions but not yet surfaced in the\nCQL model info.\n*/\ndefine function &quot;GetExtensions&quot;(domainResource DomainResource, url String):\n  domainResource.extension E\n\t  where E.url = ('http://hl7.org/fhir/us/qicore/StructureDefinition/' + url)\n\t\treturn E\n\ndefine function &quot;GetExtension&quot;(domainResource DomainResource, url String):\n  singleton from &quot;GetExtensions&quot;(domainResource, url)\n\n/*\nNOTE: Extensions are not the preferred approach, but are used as a way to access\ncontent that is defined by extensions but not yet surfaced in the\nCQL model info.\n*/\ndefine function &quot;GetExtensions&quot;(element Element, url String):\n  element.extension E\n\t  where E.url = (url)\n\t\treturn E\n\ndefine function &quot;GetExtension&quot;(element Element, url String):\n  singleton from &quot;GetExtensions&quot;(element, url)\n\n/*\nNOTE: Extensions are not the preferred approach, but are used as a way to access\ncontent that is defined by extensions but not yet surfaced in the\nCQL model info.\n*/\ndefine function &quot;GetBaseExtensions&quot;(domainResource DomainResource, url String):\n  domainResource.extension E\n\t  where E.url = ('http://hl7.org/fhir/StructureDefinition/' + url)\n\t\treturn E\n\ndefine function &quot;GetBaseExtension&quot;(domainResource DomainResource, url String):\n  singleton from &quot;GetBaseExtensions&quot;(domainResource, url)\n\n/*\nNOTE: Provenance is not the preferred approach, this is provided only as an illustration\nfor what using Provenance could look like, and is not a tested pattern\n*/\ndefine function &quot;GetProvenance&quot;(resource Resource):\n  singleton from ([Provenance: target in resource.id])\n\ndefine function &quot;GetMedicationCode&quot;(request MedicationRequest):\n  if request.medication is CodeableConcept then\n\t  request.medication as CodeableConcept\n\telse\n\t  (singleton from ([Medication] M where M.id = GetId((request.medication as Reference).reference))).code\n</code></pre>\n                    \n                    \n                </td>\n            </tr>\n        \n    </table>\n</div>"
        },
        "version": "4.0.000",
        "name": "MATGlobalCommonFunctions_FHIR4",
        "status": "active",
        "experimental": true,
        "type": {
          "coding": [
            {
              "system": "http://hl7.org/fhir/codesystem-library-type.html",
              "code": "logic-library"
            }
          ]
        },
        "relatedArtifact": [
          {
            "type": "depends-on",
            "resource": "Library/library-FHIRHelpers-4.0.0"
          }
        ],
        "dataRequirement": [
          {
            "type": "Encounter",
            "codeFilter": [
              {
                "path": "type",
                "valueSet": "http://cts.nlm.nih.gov/fhir/ValueSet/2.16.840.1.113883.3.666.5.307"
              }
            ]
          },
          {
            "type": "Encounter",
            "codeFilter": [
              {
                "path": "type",
                "valueSet": "http://cts.nlm.nih.gov/fhir/ValueSet/2.16.840.1.113883.3.117.1.7.1.292"
              }
            ]
          },
          {
            "type": "Encounter",
            "codeFilter": [
              {
                "path": "type",
                "valueSet": "http://cts.nlm.nih.gov/fhir/ValueSet/2.16.840.1.113762.1.4.1111.143"
              }
            ]
          },
          {
            "type": "Encounter",
            "codeFilter": [
              {
                "path": "type",
                "valueSet": "http://cts.nlm.nih.gov/fhir/ValueSet/2.16.840.1.113883.3.117.1.7.1.292"
              }
            ]
          },
          {
            "type": "Condition"
          },
          {
            "type": "Condition"
          },
          {
            "type": "Location"
          },
          {
            "type": "Provenance",
            "codeFilter": [
              {
                "path": "target"
              }
            ]
          },
          {
            "type": "Medication"
          }
        ],
        "content": [
          {
            "contentType": "application/elm+xml",
            "data": ""
          },
          {
            "contentType": "text/cql",
            "data": ""
          },
          {
            "contentType": "application/elm+xml",
            "data": ""
          },
          {
            "contentType": "text/cql",
            "data": ""
          }
        ]
      },
      "request": {
        "method": "PUT",
        "url": "Library/library-MATGlobalCommonFunctions-FHIR4-4.0.000"
      }
    },
    {
      "resource": {
        "resourceType": "Patient",
        "id": "numer-EXM349-FHIR4",
        "meta": {
          "profile": [
            "http://hl7.org/fhir/us/core/StructureDefinition/us-core-patient"
          ]
        },
        "extension": [
          {
            "url": "http://hl7.org/fhir/us/core/StructureDefinition/us-core-race",
            "extension": [
              {
                "url": "ombCategory",
                "valueCoding": {
                  "system": "urn:oid:2.16.840.1.113883.6.238",
                  "code": "2028-9",
                  "display": "Asian"
                }
              }
            ]
          },
          {
            "url": "http://hl7.org/fhir/us/core/StructureDefinition/us-core-ethnicity",
            "extension": [
              {
                "url": "ombCategory",
                "valueCoding": {
                  "system": "urn:oid:2.16.840.1.113883.6.238",
                  "code": "2135-2",
                  "display": "Hispanic or Latino"
                }
              }
            ]
          }
        ],
        "identifier": [
          {
            "use": "usual",
            "type": {
              "coding": [
                {
                  "system": "http://terminology.hl7.org/CodeSystem/v2-0203",
                  "code": "MR",
                  "display": "Medical Record Number"
                }
              ]
            },
            "system": "http://hospital.smarthealthit.org",
            "value": "999999992"
          }
        ],
        "name": [
          {
            "family": "Blitz",
            "given": [
              "Don"
            ]
          }
        ],
        "gender": "male",
        "birthDate": "1965-01-01"
      },
      "request": {
        "method": "PUT",
        "url": "Patient/numer-EXM349-FHIR4"
      }
    },
    {
      "resource": {
        "resourceType": "Measure",
        "id": "measure-EXM349-FHIR4-2.9.000",
        "meta": {
          "versionId": "1",
          "lastUpdated": "2020-04-22T00:00:00.000+00:00",
          "profile": [
            "http://hl7.org/fhir/us/cqfmeasures/StructureDefinition/proportion-measure-cqfm"
          ]
        },
        "text": {
          "status": "generated"
        },
        "extension": [
          {
            "url": "http://hl7.org/fhir/us/cqfmeasures/StructureDefinition/cqfm-populationBasis",
            "valueCode": "boolean"
          }
        ],
        "url": "http://hl7.org/fhir/us/cqfmeasures/Measure/measure-EXM349-FHIR",
        "version": "2.9.000",
        "name": "EXM349",
        "title": "HIV Screening",
        "status": "draft",
        "experimental": true,
        "publisher": "Centers for Disease Control and Prevention (CDC)",
        "contact": [
          {
            "telecom": [
              {
                "system": "url"
              }
            ]
          }
        ],
        "description": "Percentage of patients aged 15-65 at the start of the measurement period who were between 15-65 years old when tested for HIV",
        "useContext": [
          {
            "code": {
              "code": "program"
            },
            "valueCodeableConcept": {
              "text": "eligible-provider"
            }
          }
        ],
        "jurisdiction": [
          {
            "coding": [
              {
                "system": "urn:iso:std:iso:3166",
                "code": "US"
              }
            ]
          }
        ],
        "purpose": "The US Preventive Services Task Force recommends that clinicians screen for HIV infection in adolescents and adults aged 15 to 65 years. Younger adolescents and older adults who are at increased risk should also be screened (A Recommendation) (Moyer, 2013). \n\nSince 2006, the CDC has recommended routine opt-out HIV screening (i.e., patient is notified that testing will be performed unless the patient declines) in healthcare facilities of adolescents and adults 13-64 years of age and HIV diagnostic testing of adolescents and adults with clinical signs or symptoms consistent with HIV infection (Centers for Disease Control and Prevention, 2006).",
        "copyright": "Limited proprietary coding is contained in the Measure specifications for user convenience. Users of proprietary code sets should obtain all necessary licenses from the owners of the code sets. Mathematica Policy Research disclaims all liability for use or accuracy of any third-party codes contained in the specifications.\n\nCPT(R) contained in the Measure specifications is copyright 2004-2018 American Medical Association. LOINC(R) copyright 2004-2018 Regenstrief Institute, Inc. This material contains SNOMED Clinical Terms(R) (SNOMED CT[R]) copyright 2004-2018 International Health Terminology Standards Development Organisation. ICD-10 copyright 2018 World Health Organization. All Rights Reserved.",
        "approvalDate": "2016-01-01",
        "lastReviewDate": "2016-09-01",
        "effectivePeriod": {
          "start": "2020-01-01",
          "end": "2020-12-31"
        },
        "topic": [
          {
            "coding": [
              {
                "system": "http://loinc.org",
                "code": "57024-2",
                "display": "Health Quality Measure Document"
              }
            ]
          }
        ],
        "relatedArtifact": [
          {
            "type": "citation",
            "citation": "Blackwell, D. L., & Villarroel, M. A. (2019). QuickStats: Age-adjusted percentage of adults aged greater than or equal to 18, who were ever tested for human immunodeficiency virus (HIV) infection, by U.S. census regionNational Health Interview Survey, 2017. Morbidity and Mortality Weekly Report, 67(5152), 1432. doi: http://dx.doi.org/10.15585/mmwr.mm675152a6"
          },
          {
            "type": "citation",
            "citation": "Centers for Disease Control and Prevention. (2018a). Diagnoses of HIV infection in the United States and dependent areas, 2017. HIV Surveillance Report, 29. Retrieved from https://www.cdc.gov/hiv/pdf/library/reports/surveillance/cdc-hiv-surveillance-report-2017-vol-29.pdf"
          }
        ],
        "library": [
          "http://hl7.org/fhir/us/draftmeasures/Library/library-EXM349-FHIR4-2.9.000"
        ],
        "disclaimer": "The performance Measure is not a clinical guideline and does not establish a standard of medical care, and has not been tested for all potential applications.\n\nTHE MEASURE AND SPECIFICATIONS ARE PROVIDED \"AS IS\" WITHOUT WARRANTY OF ANY KIND.\n\nDue to technical limitations, registered trademarks are indicated by (R) or [R] and unregistered trademarks are indicated by (TM) or [TM].",
        "scoring": {
          "coding": [
            {
              "system": "http://hl7.org/fhir/measure-scoring",
              "code": "proportion"
            }
          ]
        },
        "type": [
          {
            "coding": [
              {
                "system": "http://hl7.org/fhir/measure-type",
                "code": "process"
              }
            ]
          }
        ],
        "rationale": "Human immunodeficiency virus (HIV) is a communicable infection that leads to a progressive disease with a long asymptomatic period. There were an estimated 38,500 new HIV infections in the United States in 2015 (Centers for Disease Control and Prevention, 2018a). Without treatment, most persons develop acquired immunodeficiency syndrome (AIDS) within 10 years of HIV infection. Antiretroviral therapy (ART) delays this progression and increases the length of survival, but it is most effective when initiated during the asymptomatic phase. Persons living with HIV who use ART and achieve viral suppression can have a nearly normal life expectancy (Samji et al., 2013).  DHHS Guidelines for the Use of Antiretroviral Agents in HIV-1-Infected Adults and Adolescents recommends antiretroviral therapy for all HIV-infected individuals to reduce the risk of disease progression (regardless of CD4 cell count at diagnosis) (Panel on Antiretroviral Guidelines for Adults and Adolescents, 2017).\n\nCDC estimates that almost 15% of the 1.1 million adults and adolescents living with HIV infection in the United States are unaware of their infection (Centers for Disease Control and Prevention, 2018b). Among persons diagnosed with HIV in 2011, one quarter were diagnosed with Stage 3 HIV (AIDS) at the time of HIV diagnosis (Centers for Disease Control and Prevention, 2018c), which is when the median CD4 count at diagnosis is less than 200 cells/mm3 for persons aged greater than or equal to 6 years (Centers for Disease Control and Prevention, 2018a). HIV screening identifies infected persons who were previously unaware of their infection, which enables them to seek medical and social services that can improve their health and the quality and length of their lives. Additionally, using ART with high levels of medication adherence has been shown to substantially reduce risk for HIV transmission (Panel on Antiretroviral Guidelines for Adults and Adolescents, 2017).\n\nBased on the National Health Interview Survey, fewer than half of persons 18 and older reported ever having been tested for HIV as of 2017 (Blackwell et al., 2019).",
        "clinicalRecommendationStatement": "The US Preventive Services Task Force recommends that clinicians screen for HIV infection in adolescents and adults aged 15 to 65 years. Younger adolescents and older adults who are at increased risk should also be screened (A Recommendation) (Moyer, 2013).\n\nSince 2006, the CDC has recommended routine opt-out HIV screening (i.e., patient is notified that testing will be performed unless the patient declines) in healthcare facilities of adolescents and adults 13-64 years of age and HIV diagnostic testing of adolescents and adults with clinical signs or symptoms consistent with HIV infection (Centers for Disease Control and Prevention, 2006).",
        "improvementNotation": {
          "coding": [
            {
              "system": "http://terminology.hl7.org/CodeSystem/measure-improvement-notation",
              "code": "increase"
            }
          ]
        },
        "guidance": "This measure evaluates the proportion of patients aged 15 to 65 at the start of the measurement period who have documentation of having received an HIV test at least once on or after their 15th birthday and before their 66th birthday. In order to satisfy the measure, the reporting provider must have documentation of the administration of the laboratory test present in the patient's medical record. In cases where the HIV test was performed elsewhere, providers cannot rely on patient attestation or self-report to meet the measure requirements, as previous research has shown that patient self-report is an unreliable indicator of previous HIV testing history. Rather, providers must request documentation of those test results. If such documentation is not available, the patient should be considered still eligible for HIV screening. If such documentation is available, but cannot be provided in a standardized, structured format (such that the lab test and results can be readily incorporated as structured data within the EHR), providers should enter the information into their EHR as a laboratory test in a manner consistent with the EHR in use. If the specific Human Immunodeficiency Virus (HIV) Laboratory Test LOINC code of the test is not known, the entry should use the more generic code LOINC panel code [75622-1].",
        "group": [
          {
            "population": [
              {
                "code": {
                  "coding": [
                    {
                      "system": "http://terminology.hl7.org/CodeSystem/measure-population",
                      "code": "initial-population",
                      "display": "Initial Population"
                    }
                  ]
                }
              },
              {
                "code": {
                  "coding": [
                    {
                      "system": "http://terminology.hl7.org/CodeSystem/measure-population",
                      "code": "numerator",
                      "display": "Numerator"
                    }
                  ]
                }
              },
              {
                "code": {
                  "coding": [
                    {
                      "system": "http://terminology.hl7.org/CodeSystem/measure-population",
                      "code": "denominator",
                      "display": "Denominator"
                    }
                  ]
                }
              },
              {
                "code": {
                  "coding": [
                    {
                      "system": "http://terminology.hl7.org/CodeSystem/measure-population",
                      "code": "denominator-exclusion",
                      "display": "Denominator Exclusion"
                    }
                  ]
                }
              }
            ]
          }
        ],
        "supplementalData": [
          {
            "usage": [
              {
                "coding": [
                  {
                    "system": "http://hl7.org/fhir/measure-data-usage",
                    "code": "supplemental-data"
                  }
                ]
              }
            ]
          },
          {
            "usage": [
              {
                "coding": [
                  {
                    "system": "http://hl7.org/fhir/measure-data-usage",
                    "code": "supplemental-data"
                  }
                ]
              }
            ]
          },
          {
            "usage": [
              {
                "coding": [
                  {
                    "system": "http://hl7.org/fhir/measure-data-usage",
                    "code": "supplemental-data"
                  }
                ]
              }
            ]
          },
          {
            "usage": [
              {
                "coding": [
                  {
                    "system": "http://hl7.org/fhir/measure-data-usage",
                    "code": "supplemental-data"
                  }
                ]
              }
            ]
          }
        ]
      },
      "request": {
        "method": "PUT",
        "url": "Measure/measure-EXM349-FHIR4-2.9.000/_history/1"
      }
    }
  ]
}